DATE 2017:094:09:32:22 obsn   8 az 154 el 21 freq_MHz  1420.4000 Tsys 153.104 Tant 31.064 vlsr  -39.05 glat -0.205 glon  0.117 azoff 0.00 eloff 0.00 source G0.0 
Fstart 1419.397 fstop 1421.403 spacing 0.009375 bw    2.400 fbw    2.000 MHz nfreq 256 nsam 5242880 npoint 214 integ     7 sigma    0.618 bsw 0
Spectrum      6 integration periods
 175.125  173.939  175.145  174.745  174.670  173.570  173.359  174.817  174.442  172.863  173.011  173.468  172.975  172.947  173.747  174.096  174.804  174.112  173.055  173.741  172.728  174.196  173.479  172.725  174.237  174.060  175.007  172.942  173.234  173.312  174.658  173.343  174.264  173.650  172.674  173.387  172.632  173.948  172.530  173.139  173.721  173.440  174.808  173.427  174.689  174.829  174.741  174.249  173.583  173.576  174.401  173.514  175.756  173.869  174.768  174.410  174.629  175.415  174.481  175.930  173.538  174.410  173.754  174.484  175.245  175.008  176.163  174.519  176.887  188.657  181.020  183.042  175.023  174.416  175.215  174.973  174.792  176.266  175.233  176.046  174.219  175.099  175.562  176.134  176.269  176.022  174.804  174.868  175.976  176.300  176.699  175.808  175.953  175.032  174.460  174.311  175.488  175.666  174.872  175.419  175.142  175.458  174.235  175.256  176.109  176.480  173.931  176.798  175.651  176.599  176.617  177.409  178.266  179.241  180.843  178.581  181.538  184.005  186.219  187.993  190.778  193.873  195.171  201.419  204.095  210.532  217.604  222.865  226.663  221.227  220.007  232.298  235.248  231.041  226.773  220.412  215.556  210.382  206.446  204.920  200.659  197.212  194.681  192.181  189.608  187.724  186.086  183.824  182.755  180.192  181.398  179.496  179.989  178.491  178.342  178.197  177.322  178.113  178.626  178.834  177.213  177.474  177.895  179.105  179.270  179.581  178.476  178.415  178.370  177.980  178.476  177.471  176.213  179.111  176.721  176.841  175.373  175.786  176.082  175.617  176.623  174.012  175.243  176.573  175.898  175.753  174.319  177.118  175.538  175.304  174.738  176.059  174.449  175.464  175.243  175.150  174.434  175.526  173.564  175.135  175.163  174.793  175.824  176.091  175.675  175.871  175.999  176.515  176.779  175.367  176.233  176.462  175.542  176.108 
DATE 2017:094:09:32:35 obsn   9 az 154 el 21 freq_MHz  1420.4000 Tsys 153.104 Tant 30.845 vlsr  -39.05 glat -0.205 glon  0.117 azoff 0.00 eloff 0.00 source G0.0 
Fstart 1419.397 fstop 1421.403 spacing 0.009375 bw    2.400 fbw    2.000 MHz nfreq 256 nsam 5242880 npoint 214 integ    17 sigma    0.378 bsw 0
Spectrum     16 integration periods
 176.393  175.250  175.817  175.133  175.919  174.953  174.305  175.325  175.276  173.847  174.842  174.804  174.197  174.377  174.877  174.510  174.959  174.578  174.505  175.631  173.831  174.844  174.771  175.229  175.448  175.118  175.623  174.572  174.678  174.431  174.912  174.387  175.296  175.140  173.970  175.029  174.811  174.620  174.611  174.676  174.903  175.361  175.593  175.168  175.959  175.794  175.827  175.908  175.408  175.980  176.017  175.156  177.261  175.614  176.111  175.380  176.416  176.005  176.298  176.397  175.469  176.189  175.485  176.286  176.238  176.568  177.277  175.750  177.332  191.833  181.721  184.673  176.731  175.702  176.228  175.956  176.109  177.086  177.411  176.282  176.345  176.782  176.596  177.290  177.216  177.327  176.517  176.516  177.437  177.775  177.261  177.021  177.090  176.795  176.068  176.299  176.552  176.639  176.847  176.442  176.444  176.779  175.781  176.792  177.701  178.151  176.553  177.646  177.391  177.645  178.234  178.788  179.231  180.544  181.064  181.883  184.048  186.030  188.675  191.058  193.699  196.355  200.420  205.064  209.572  216.284  224.285  230.909  233.237  228.368  227.310  240.382  243.703  239.653  233.936  226.810  221.324  215.578  211.789  209.239  205.211  201.500  198.593  196.232  191.728  190.660  188.783  186.412  184.954  182.793  183.364  181.511  181.707  181.305  180.569  180.806  179.513  179.930  179.835  179.777  180.280  179.784  180.152  181.159  180.865  180.703  180.701  180.805  180.612  180.111  179.644  179.429  179.135  180.252  178.899  178.550  177.338  177.340  177.928  177.981  177.020  176.691  177.725  177.505  177.201  177.260  176.028  178.068  176.767  176.802  176.321  177.175  176.839  177.019  177.021  176.881  176.464  176.935  176.101  176.415  176.741  176.274  176.872  177.555  176.774  178.000  177.397  177.160  177.866  177.293  177.536  177.233  177.139  177.433 
DATE 2017:094:09:32:48 obsn  10 az 154 el 21 freq_MHz  1420.4000 Tsys 153.104 Tant 30.923 vlsr  -39.05 glat -0.205 glon  0.117 azoff 0.00 eloff 0.00 source G0.0 
Fstart 1419.397 fstop 1421.403 spacing 0.009375 bw    2.400 fbw    2.000 MHz nfreq 256 nsam 5242880 npoint 214 integ    28 sigma    0.297 bsw 0
Spectrum     26 integration periods
 176.705  175.325  176.005  175.188  176.150  175.235  174.927  175.258  175.517  174.298  175.306  175.182  174.225  174.687  175.059  174.862  175.157  174.989  174.718  175.744  174.571  175.213  174.998  175.092  175.510  174.911  175.423  174.822  175.387  174.725  175.249  174.777  175.804  175.308  174.606  175.229  175.461  174.967  174.908  175.082  175.632  175.698  175.545  175.571  176.234  176.158  175.882  176.146  176.191  176.249  176.164  175.714  177.209  175.962  176.315  175.861  176.722  176.262  176.897  176.535  176.082  176.455  175.914  176.835  176.776  176.630  177.289  176.593  177.879  192.470  180.615  185.389  177.245  176.315  176.592  176.686  176.514  177.348  177.201  176.717  176.768  176.878  176.952  177.357  177.090  177.532  177.279  176.961  177.681  177.744  177.522  177.508  177.765  177.245  176.819  176.632  177.110  176.919  177.138  177.383  177.211  177.193  176.438  177.176  177.680  177.828  176.984  177.987  177.912  178.073  178.879  179.059  179.464  180.900  181.567  182.507  184.516  186.425  189.103  191.818  194.466  197.685  201.784  205.900  210.962  217.262  225.694  232.686  234.679  230.745  229.122  242.650  245.716  241.677  235.787  228.806  223.016  217.207  212.972  210.322  206.346  203.028  199.481  196.700  193.034  191.576  189.405  186.712  185.194  183.345  183.601  182.370  181.950  181.583  180.870  181.077  180.429  180.419  180.440  180.344  180.770  180.412  180.915  181.449  181.336  181.282  181.342  181.319  180.912  180.371  180.079  180.033  179.690  180.288  179.151  179.103  177.969  177.830  178.545  178.360  177.388  177.323  178.271  177.765  177.916  177.735  176.873  178.056  177.026  177.325  176.772  177.412  177.459  177.340  177.346  176.983  176.764  177.676  176.978  176.699  176.950  176.864  176.980  177.563  176.877  178.136  177.659  177.461  177.764  177.615  177.617  177.364  177.784  177.766 
DATE 2017:094:09:33:12 obsn  11 az 145 el 26 freq_MHz  1420.4000 Tsys 153.104 Tant 26.678 vlsr  -42.21 glat -0.205 glon 10.118 azoff 0.00 eloff 0.00 source G10.0 
Fstart 1419.397 fstop 1421.403 spacing 0.009375 bw    2.400 fbw    2.000 MHz nfreq 256 nsam 5242880 npoint 214 integ    11 sigma    0.478 bsw 0
Spectrum     10 integration periods
 173.905  173.057  172.579  171.984  172.195  172.240  172.507  171.581  172.092  171.418  171.567  172.376  172.514  171.838  171.700  171.722  171.273  171.920  172.434  171.877  171.295  172.740  172.208  172.270  172.911  172.199  171.545  170.991  172.148  171.692  171.476  172.655  171.943  171.333  172.090  172.317  170.902  172.152  172.927  172.063  172.811  173.517  171.978  172.173  172.846  173.154  173.176  173.454  172.269  173.129  175.005  174.419  173.432  173.620  173.428  174.005  173.282  172.916  174.076  173.112  173.813  173.432  174.503  175.161  173.281  173.411  172.733  174.183  176.290  191.956  176.260  182.358  174.873  173.904  173.638  173.527  173.501  172.482  172.993  172.908  173.089  172.664  173.120  172.548  172.971  172.752  173.525  173.306  173.345  173.212  175.069  173.213  173.570  173.931  172.566  173.936  173.603  173.427  174.321  173.687  173.598  174.144  174.641  174.746  174.510  175.670  175.340  177.691  177.329  178.830  181.058  181.301  183.069  184.179  187.004  187.894  191.071  194.409  196.220  201.234  204.014  207.741  211.719  215.430  218.533  222.667  227.149  229.194  231.164  229.073  218.560  219.937  227.390  227.762  220.645  213.779  210.508  208.060  206.287  205.221  204.609  203.237  200.307  197.920  194.879  191.852  187.635  184.864  182.977  179.518  178.259  176.617  176.399  173.455  175.698  174.889  174.638  172.498  172.859  172.402  173.597  172.956  172.669  173.710  173.534  172.694  173.213  173.050  173.139  173.001  172.478  172.273  172.218  172.957  172.562  172.621  171.445  172.627  172.685  171.950  172.242  172.064  171.638  172.696  173.078  172.085  172.030  173.033  172.892  172.997  171.902  171.635  171.676  171.986  173.286  172.701  172.029  171.867  171.588  171.033  172.759  171.650  171.230  172.228  171.812  176.728  176.168  172.967  172.164  173.065  172.487  173.122  173.854  173.172 
DATE 2017:094:09:33:25 obsn  12 az 145 el 26 freq_MHz  1420.4000 Tsys 153.104 Tant 26.171 vlsr  -42.21 glat -0.205 glon 10.118 azoff 0.00 eloff 0.00 source G10.0 
Fstart 1419.397 fstop 1421.403 spacing 0.009375 bw    2.400 fbw    2.000 MHz nfreq 256 nsam 5242880 npoint 214 integ    22 sigma    0.338 bsw 0
Spectrum     20 integration periods
 173.680  173.146  172.277  171.701  172.106  172.120  172.720  171.773  171.727  171.779  171.344  172.075  172.002  171.582  171.690  171.632  171.576  172.372  172.715  172.127  171.561  172.360  172.313  172.263  172.190  172.120  171.763  171.153  171.752  171.796  171.568  172.525  172.029  171.458  171.643  172.368  171.830  172.138  172.827  172.688  172.403  172.871  172.485  172.466  172.666  172.526  172.587  172.979  172.843  172.661  174.199  173.835  173.499  172.934  173.690  173.612  173.657  173.001  174.014  173.332  174.184  173.599  174.180  174.132  172.545  173.391  173.022  174.384  176.050  190.901  177.197  181.504  174.497  173.806  173.252  173.105  173.250  172.457  172.559  172.527  172.365  172.506  172.981  172.068  172.394  172.229  172.851  172.819  173.014  173.318  174.053  172.779  173.205  173.438  172.396  172.868  173.389  172.889  173.423  173.526  173.957  173.559  174.418  174.631  174.843  175.619  175.553  177.156  177.668  178.674  180.503  181.455  183.027  184.652  186.950  188.933  191.086  194.594  197.493  200.755  204.432  208.467  212.412  215.745  218.800  222.524  226.032  229.668  230.654  228.670  217.503  218.375  226.152  226.552  219.836  212.419  209.345  207.645  206.308  204.715  204.188  203.454  200.838  198.214  195.691  191.813  187.679  184.951  182.651  179.426  177.106  176.897  175.488  174.077  175.128  174.731  173.677  172.554  172.321  172.399  173.609  172.252  172.568  173.051  172.748  171.912  172.373  172.392  172.062  172.436  172.196  171.865  171.856  172.672  172.232  172.003  171.481  172.142  172.381  171.764  171.856  171.337  171.703  171.868  172.289  171.973  171.932  172.130  171.863  171.919  171.860  171.248  171.155  171.905  172.788  172.142  171.560  171.250  171.290  171.173  171.850  171.591  171.383  172.342  171.611  176.521  176.196  172.225  171.968  172.569  172.469  172.687  173.585  172.724 
DATE 2017:094:09:33:52 obsn  13 az 135 el 31 freq_MHz  1420.4000 Tsys 153.104 Tant 26.956 vlsr  -44.08 glat -0.200 glon 20.118 azoff 0.00 eloff 0.00 source G20.0 
Fstart 1419.397 fstop 1421.403 spacing 0.009375 bw    2.400 fbw    2.000 MHz nfreq 256 nsam 5242880 npoint 214 integ     4 sigma    0.756 bsw 0
Spectrum      4 integration periods
 171.230  172.843  172.343  172.144  171.035  171.492  172.384  173.350  172.197  172.819  171.553  170.670  170.996  170.651  172.323  172.134  169.511  171.295  171.688  171.503  171.247  172.015  171.894  171.859  171.470  171.310  169.960  169.944  171.731  170.472  171.348  171.642  170.478  172.201  170.795  170.316  171.477  170.980  170.169  171.818  170.318  170.747  171.152  170.810  171.416  170.400  169.857  172.008  171.330  172.132  171.564  171.650  171.083  171.062  172.565  173.347  170.907  170.482  172.529  171.117  170.965  172.698  172.471  172.903  172.966  171.742  172.623  174.507  175.366  204.722  173.193  179.290  175.597  175.775  174.604  175.304  178.104  175.790  175.377  173.494  175.804  174.720  175.876  175.906  174.250  176.238  175.554  176.582  176.882  177.023  176.146  176.971  176.530  177.148  174.976  177.125  178.593  178.655  179.569  179.796  178.922  181.306  182.427  180.611  183.394  184.856  184.788  186.438  187.285  187.155  189.847  190.806  190.249  192.779  195.037  197.017  198.487  203.027  202.902  206.645  208.154  212.327  214.871  217.352  221.550  224.245  225.262  222.544  222.378  219.745  217.492  214.804  218.122  222.517  218.972  210.779  202.951  197.701  194.286  192.621  192.116  191.593  190.938  191.877  191.468  189.315  189.648  188.953  185.147  186.147  183.414  182.082  179.992  178.130  175.060  175.942  172.961  172.876  171.245  170.260  170.901  170.302  170.719  170.218  169.725  170.577  169.767  168.844  169.816  170.404  168.926  169.536  169.586  170.639  169.709  169.880  169.766  169.718  168.615  169.551  169.501  169.164  170.325  169.999  169.647  168.968  170.110  168.389  169.040  171.041  170.300  170.519  168.929  170.261  170.235  168.914  170.492  168.637  169.703  170.960  170.028  169.913  170.755  168.285  167.796  171.285  171.343  171.415  170.697  169.504  169.468  170.705  171.024  170.273 
DATE 2017:094:09:34:05 obsn  14 az 135 el 31 freq_MHz  1420.4000 Tsys 153.104 Tant 27.356 vlsr  -44.08 glat -0.200 glon 20.118 azoff 0.00 eloff 0.00 source G20.0 
Fstart 1419.397 fstop 1421.403 spacing 0.009375 bw    2.400 fbw    2.000 MHz nfreq 256 nsam 5242880 npoint 214 integ    15 sigma    0.404 bsw 0
Spectrum     14 integration periods
 172.996  172.896  172.267  172.257  172.082  171.699  171.705  172.325  171.800  172.434  171.183  171.667  170.745  170.961  171.568  172.237  170.979  171.541  172.124  171.557  171.660  171.470  171.940  171.833  171.468  171.144  170.854  170.784  171.497  170.579  170.888  170.683  170.635  171.052  170.733  170.039  170.991  171.154  170.595  171.621  170.356  171.431  171.670  171.321  171.263  170.204  171.631  171.479  171.596  171.344  172.062  171.415  171.424  171.753  172.706  172.577  171.414  170.919  172.008  171.321  171.474  171.426  172.261  172.890  172.019  172.028  172.241  174.423  175.490  207.400  178.081  179.180  176.007  175.983  174.736  176.255  177.182  176.443  176.209  176.093  175.894  175.125  176.370  176.009  176.296  176.708  176.825  177.181  177.554  178.447  177.273  178.271  177.879  178.047  177.917  178.760  179.247  179.310  180.143  181.103  181.128  182.528  183.742  183.872  185.784  187.608  188.069  188.969  189.731  190.826  191.613  193.367  193.325  195.352  196.966  198.252  199.708  202.863  204.070  206.353  209.193  213.320  216.948  218.752  221.965  223.227  224.976  222.872  220.928  218.625  217.716  215.733  218.003  221.334  219.835  211.106  200.936  196.629  193.074  191.375  190.642  189.539  189.200  190.214  190.100  189.385  189.044  189.805  188.006  187.153  184.672  183.787  181.437  179.324  176.602  175.168  173.188  172.458  170.292  171.089  170.199  169.991  170.694  170.079  168.878  169.694  169.842  169.221  170.189  169.612  169.330  169.689  169.580  169.510  169.947  169.786  169.849  170.024  169.187  169.926  170.323  169.857  170.021  169.925  169.787  169.315  169.643  168.614  169.379  169.608  170.000  170.095  169.583  169.544  169.887  170.200  170.160  169.776  169.222  169.792  169.223  169.492  170.257  168.954  168.683  170.869  170.822  170.048  169.920  169.257  170.493  170.754  170.763  170.677 
DATE 2017:094:09:34:18 obsn  15 az 135 el 31 freq_MHz  1420.4000 Tsys 153.104 Tant 27.386 vlsr  -44.08 glat -0.200 glon 20.118 azoff 0.00 eloff 0.00 source G20.0 
Fstart 1419.397 fstop 1421.403 spacing 0.009375 bw    2.400 fbw    2.000 MHz nfreq 256 nsam 5242880 npoint 214 integ    26 sigma    0.309 bsw 0
Spectrum     24 integration periods
 173.543  172.858  172.443  173.034  172.249  172.082  172.048  172.649  171.823  172.137  171.276  171.677  170.956  170.879  171.432  172.212  171.737  171.192  172.019  171.382  171.718  171.527  172.203  171.947  171.705  171.499  170.823  171.360  171.566  170.839  171.112  170.861  171.122  170.699  170.730  170.292  171.092  171.523  171.181  171.604  170.515  171.311  171.001  170.967  171.370  170.683  171.640  171.100  170.768  171.099  171.760  171.678  171.318  171.576  172.226  171.992  171.693  170.808  171.834  171.405  171.760  171.301  172.583  173.019  171.831  172.210  172.885  174.517  176.079  208.195  177.623  179.238  176.209  176.137  175.273  176.792  177.409  177.309  176.897  176.494  176.579  175.301  176.178  176.683  176.591  176.981  177.152  177.117  177.875  178.645  177.951  177.950  178.091  178.121  178.097  179.071  179.200  179.853  180.649  180.988  181.857  183.080  184.227  184.901  186.588  188.215  188.069  189.752  190.078  191.063  192.765  193.732  194.427  195.975  196.886  198.669  200.124  202.599  204.804  206.505  209.750  213.863  216.693  219.385  222.460  223.866  225.390  222.794  220.646  217.890  217.617  216.357  217.882  220.918  220.496  211.078  201.276  196.832  193.210  191.488  190.409  190.018  189.324  189.618  190.244  189.616  189.738  189.995  188.819  187.682  185.313  184.303  182.110  179.837  177.676  175.273  173.608  172.066  170.951  171.196  170.667  170.376  170.275  170.348  169.309  169.905  170.131  169.511  170.029  169.582  169.292  169.801  169.215  169.700  169.908  169.979  169.497  170.079  169.654  169.809  169.908  169.695  170.172  169.888  169.959  169.678  169.417  169.442  169.484  169.590  169.792  169.959  169.635  169.728  169.869  170.101  170.072  169.641  169.708  170.180  169.798  169.515  169.953  169.311  169.231  170.677  170.897  170.124  170.252  169.417  170.447  170.804  170.817  170.394 
DATE 2017:094:09:34:45 obsn  16 az 124 el 35 freq_MHz  1420.4000 Tsys 153.104 Tant 31.322 vlsr  -44.61 glat -0.188 glon 30.118 azoff 0.00 eloff 0.00 source G30.0 
Fstart 1419.397 fstop 1421.403 spacing 0.009375 bw    2.400 fbw    2.000 MHz nfreq 256 nsam 5242880 npoint 214 integ    10 sigma    0.504 bsw 0
Spectrum      9 integration periods
 172.918  170.984  171.595  170.681  171.859  170.929  171.484  170.668  171.797  172.029  172.098  172.547  171.014  171.190  171.052  171.597  171.410  171.748  171.803  170.793  171.792  170.897  171.255  171.240  171.829  171.110  172.524  171.577  171.814  171.802  171.491  170.766  171.833  172.364  172.781  171.765  170.687  171.612  171.781  172.019  171.545  172.227  171.185  171.210  172.705  172.223  172.160  172.021  172.577  172.981  172.236  173.111  172.892  171.778  172.750  173.064  172.470  172.904  173.451  173.120  171.795  171.958  172.847  174.742  172.900  173.821  172.567  174.478  175.493  187.180  182.682  179.259  175.193  174.273  175.852  175.299  177.307  178.488  180.658  181.535  183.849  186.391  187.252  190.479  190.766  192.050  193.529  194.133  195.070  194.574  195.270  194.653  194.967  195.349  196.335  195.778  196.146  195.722  195.108  194.284  195.455  196.164  195.471  195.421  194.564  195.808  194.171  195.530  196.041  196.623  199.111  200.734  201.955  202.329  201.831  202.407  202.726  204.497  204.243  206.052  207.189  209.951  212.177  216.846  218.542  218.508  218.682  218.911  219.532  218.848  216.026  214.384  215.261  217.739  219.805  215.746  203.517  194.025  188.893  188.279  186.725  187.511  187.286  187.182  188.642  188.780  187.226  188.286  188.091  189.013  190.161  190.828  191.951  191.179  190.776  190.778  186.984  185.897  184.232  182.996  181.394  178.509  178.331  176.840  175.935  175.500  176.105  175.276  174.871  175.155  175.079  175.741  175.705  174.921  174.529  174.186  173.468  175.164  174.105  173.741  173.269  173.865  174.279  172.379  173.701  174.439  173.986  173.226  174.152  174.093  173.735  173.674  173.544  173.442  172.860  173.682  173.455  174.150  173.601  173.716  174.166  172.689  173.957  173.789  174.408  177.496  176.934  174.948  174.917  175.144  174.849  174.767  175.645  175.159 
DATE 2017:094:09:34:58 obsn  17 az 124 el 35 freq_MHz  1420.4000 Tsys 153.104 Tant 31.473 vlsr  -44.61 glat -0.188 glon 30.118 azoff 0.00 eloff 0.00 source G30.0 
Fstart 1419.397 fstop 1421.403 spacing 0.009375 bw    2.400 fbw    2.000 MHz nfreq 256 nsam 5242880 npoint 214 integ    21 sigma    0.347 bsw 0
Spectrum     19 integration periods
 172.672  171.361  171.733  171.004  171.806  170.759  171.605  171.045  171.636  171.416  171.445  171.578  170.590  171.197  171.650  171.603  171.111  171.395  172.097  171.469  171.563  171.350  171.175  171.629  172.288  171.300  172.265  171.521  171.878  171.262  171.260  171.004  171.985  171.781  172.391  171.918  171.474  171.634  171.642  171.761  172.267  171.630  171.872  171.217  172.197  172.274  172.285  172.677  172.959  172.249  172.846  172.306  172.999  171.981  173.343  173.486  172.423  172.746  172.969  172.714  172.459  172.118  172.834  175.072  172.671  173.462  172.201  175.025  175.643  186.236  178.754  178.538  175.320  174.317  175.602  175.800  177.845  178.398  180.751  182.731  184.662  186.764  188.645  191.460  191.894  193.378  194.527  195.113  196.032  195.991  196.575  195.713  196.269  196.144  196.647  196.246  196.024  195.984  196.400  196.359  196.318  196.606  195.722  196.363  195.159  195.854  195.020  196.037  196.648  197.696  199.637  201.424  202.598  202.688  202.208  203.009  203.194  203.645  204.489  205.321  206.719  210.033  212.260  216.913  217.553  217.861  218.491  218.646  219.141  219.162  216.888  214.756  214.896  217.428  220.384  216.408  203.949  193.263  188.304  187.875  186.529  187.283  186.718  187.715  188.416  188.379  187.824  189.146  188.208  188.211  190.169  191.692  192.378  192.400  191.777  192.076  188.913  187.604  185.166  183.769  181.928  179.832  178.683  177.804  176.096  176.260  176.239  175.226  175.328  175.736  175.577  175.459  175.658  175.338  174.876  174.585  174.416  174.850  174.118  173.880  174.019  174.040  174.087  173.584  173.927  174.257  173.847  173.821  174.183  174.582  174.046  173.786  173.995  174.081  173.679  173.946  173.498  174.297  173.712  174.304  174.354  173.333  174.405  174.805  174.968  177.793  177.657  175.201  175.363  175.175  174.827  174.706  174.958  175.353 
DATE 2017:094:09:35:33 obsn  18 az 113 el 38 freq_MHz  1420.4000 Tsys 153.104 Tant 28.643 vlsr  -43.78 glat -0.171 glon 40.118 azoff 0.00 eloff 0.00 source G40.0 
Fstart 1419.397 fstop 1421.403 spacing 0.009375 bw    2.400 fbw    2.000 MHz nfreq 256 nsam 5242880 npoint 214 integ     3 sigma    0.874 bsw 0
Spectrum      3 integration periods
 173.067  172.307  171.860  171.647  170.376  171.231  171.778  171.167  171.060  170.761  171.769  169.471  172.089  169.492  170.967  171.074  170.521  171.147  171.346  168.944  170.978  171.151  171.300  170.561  169.746  170.951  169.376  170.359  171.634  170.249  170.855  170.401  172.598  169.887  171.374  171.067  169.729  171.457  170.329  170.639  172.036  171.349  169.617  170.404  170.435  169.818  171.660  171.483  172.293  170.897  171.316  169.690  171.278  169.926  174.416  172.208  171.353  170.346  170.298  170.634  170.780  171.944  170.931  172.041  168.081  169.327  171.777  171.360  174.142  177.389  182.294  174.600  173.574  170.598  172.391  171.641  172.020  175.339  174.422  174.799  175.251  177.438  177.520  178.884  181.939  182.984  183.141  183.457  184.559  189.507  187.088  190.429  193.852  194.793  194.342  193.713  194.295  196.692  196.825  197.655  195.744  196.627  198.412  200.605  201.198  202.289  201.948  201.480  203.077  204.892  203.992  203.280  203.706  207.211  210.053  210.814  213.665  211.968  213.293  215.366  214.454  212.345  215.776  214.048  214.730  213.114  214.634  215.018  216.819  217.475  220.344  216.372  216.051  214.609  211.354  205.816  194.210  187.785  180.797  181.027  180.417  180.709  180.502  181.183  180.931  184.456  182.633  183.349  184.618  188.451  189.119  190.792  192.566  194.169  189.307  193.531  192.583  189.447  187.491  186.083  187.083  185.252  183.538  185.768  184.088  182.039  179.426  177.822  175.711  174.857  175.270  174.168  171.625  173.596  172.743  171.265  174.019  171.747  173.185  172.598  172.254  171.798  173.076  172.219  172.518  172.831  173.113  172.569  173.797  172.964  169.755  171.161  171.296  172.703  171.645  173.085  170.796  171.834  171.353  171.406  171.442  170.163  171.907  171.447  172.898  173.269  173.217  173.144  171.920  172.568  172.456  173.073  173.872  174.170 
DATE 2017:094:09:35:47 obsn  19 az 113 el 38 freq_MHz  1420.4000 Tsys 153.104 Tant 28.958 vlsr  -43.78 glat -0.171 glon 40.118 azoff 0.00 eloff 0.00 source G40.0 
Fstart 1419.397 fstop 1421.403 spacing 0.009375 bw    2.400 fbw    2.000 MHz nfreq 256 nsam 5242880 npoint 214 integ    14 sigma    0.420 bsw 0
Spectrum     13 integration periods
 172.181  170.878  171.956  170.877  170.189  170.530  171.281  170.905  171.121  170.161  170.672  171.125  170.448  170.982  170.391  170.604  170.035  170.956  170.610  170.187  171.077  170.731  170.468  170.673  170.153  169.892  170.158  170.129  170.377  170.014  170.143  170.263  170.194  170.494  169.622  169.280  170.265  170.564  170.432  170.649  169.974  171.051  170.260  170.366  170.550  169.836  170.174  171.189  170.705  170.277  171.016  170.080  170.828  169.969  172.679  171.356  171.144  170.254  171.182  170.560  170.202  170.310  170.994  171.933  169.800  169.922  170.730  170.291  172.961  174.443  180.730  173.361  171.275  170.873  170.207  171.119  170.843  170.986  171.496  171.764  172.725  173.354  173.258  174.230  176.204  176.629  177.701  179.763  180.745  184.002  184.795  187.769  189.958  191.739  193.340  193.282  194.798  196.702  196.638  197.307  198.224  198.269  200.425  201.635  202.876  204.559  204.419  205.578  206.118  205.522  205.933  206.144  205.766  208.163  210.858  213.774  216.881  216.975  217.914  219.247  217.269  216.077  215.637  214.385  213.506  210.448  212.351  214.475  216.642  217.817  217.287  217.712  218.452  215.396  209.638  200.022  190.639  183.974  179.333  177.967  177.302  178.247  177.918  178.282  178.188  180.004  180.867  181.831  183.379  186.144  187.794  190.152  190.841  190.777  189.291  190.053  189.349  187.347  187.517  188.039  187.446  187.738  187.889  188.082  185.478  182.996  180.807  177.980  176.655  175.038  173.867  172.654  171.978  171.992  172.169  171.582  171.776  170.740  171.675  171.269  170.861  170.692  170.875  171.147  171.147  171.470  171.998  171.247  171.129  171.618  171.405  170.930  170.538  170.635  170.594  171.187  171.168  170.092  171.297  170.154  170.372  170.934  171.015  171.554  171.676  172.873  172.588  172.177  171.343  171.417  171.756  172.259  172.457  171.473 
DATE 2017:094:09:36:00 obsn  20 az 113 el 38 freq_MHz  1420.4000 Tsys 153.104 Tant 28.706 vlsr  -43.78 glat -0.171 glon 40.118 azoff 0.00 eloff 0.00 source G40.0 
Fstart 1419.397 fstop 1421.403 spacing 0.009375 bw    2.400 fbw    2.000 MHz nfreq 256 nsam 5242880 npoint 214 integ    25 sigma    0.315 bsw 0
Spectrum     23 integration periods
 172.043  171.312  171.410  171.069  170.124  170.570  171.213  170.857  171.014  170.279  170.342  170.867  170.121  170.456  170.186  170.411  170.535  170.856  170.608  170.320  171.188  170.113  170.437  170.439  170.131  170.181  170.180  170.280  170.395  169.846  169.587  169.807  170.058  170.303  169.916  169.360  170.437  170.648  170.070  170.078  169.789  170.679  170.103  170.264  170.069  170.093  170.148  170.727  170.466  170.172  170.989  169.999  170.324  170.006  172.917  170.677  170.759  170.506  170.989  170.259  170.001  169.881  170.477  171.595  169.610  169.968  170.213  170.365  172.897  175.028  179.641  173.407  171.232  170.545  169.804  170.617  171.097  170.583  170.803  171.509  172.340  172.464  173.092  173.504  175.471  175.872  177.078  178.820  180.464  183.339  184.588  187.366  189.667  191.172  193.565  193.785  195.248  196.064  196.833  197.458  197.769  198.405  200.525  201.709  203.314  204.553  205.169  205.170  206.275  205.903  205.900  206.266  206.219  208.201  210.803  213.891  216.440  217.048  218.245  219.049  218.057  216.023  216.111  214.262  213.039  211.112  211.954  214.266  216.482  217.216  216.931  217.937  218.740  215.601  208.951  199.262  189.860  183.323  179.380  177.815  177.181  177.550  177.483  178.012  178.252  179.305  180.220  181.570  183.251  185.935  187.405  189.531  190.212  189.948  189.128  189.534  188.705  187.439  187.219  187.940  188.123  187.674  187.226  187.733  185.666  183.201  180.647  177.890  176.540  174.927  173.599  172.629  171.871  171.801  171.696  171.809  171.792  170.940  170.952  170.645  170.650  170.579  170.381  170.978  170.948  170.516  171.077  170.731  170.670  171.174  170.682  170.635  170.437  170.916  170.710  170.710  170.804  170.025  170.972  170.548  170.053  171.000  171.181  171.069  171.148  172.437  172.318  171.543  171.149  171.662  171.810  172.055  172.024  171.328 
DATE 2017:094:09:36:27 obsn  21 az 100 el 40 freq_MHz  1420.4000 Tsys 153.104 Tant 26.083 vlsr  -41.63 glat -0.149 glon 50.118 azoff 0.00 eloff 0.00 source G50.0 
Fstart 1419.397 fstop 1421.403 spacing 0.009375 bw    2.400 fbw    2.000 MHz nfreq 256 nsam 5242880 npoint 214 integ     8 sigma    0.572 bsw 0
Spectrum      7 integration periods
 169.593  170.598  168.374  170.068  169.139  170.932  168.222  170.770  169.474  169.656  170.003  169.794  169.447  169.513  169.638  169.848  170.091  169.174  168.474  169.329  168.686  169.249  169.151  169.965  170.591  168.033  168.541  167.997  170.017  169.470  167.454  168.476  167.838  168.677  167.705  167.536  167.838  168.341  167.762  168.946  168.782  170.515  169.496  167.947  168.559  169.163  167.955  168.393  170.045  170.368  170.086  168.537  169.337  168.698  170.373  169.858  169.233  169.105  168.539  168.558  169.531  167.872  168.926  171.087  167.682  168.053  169.516  169.880  169.333  174.089  173.090  173.958  169.959  167.846  167.724  169.972  169.723  168.864  168.624  169.222  168.538  168.616  169.504  169.903  170.299  169.856  169.903  169.853  171.492  171.618  171.407  172.015  174.155  174.541  176.064  176.029  180.898  180.394  184.299  189.428  193.454  197.393  200.610  204.627  207.220  210.428  211.561  213.111  212.200  213.170  211.454  210.250  208.760  207.201  207.155  204.949  205.870  205.370  205.533  204.604  207.061  209.203  213.729  213.925  214.844  213.776  214.198  215.351  213.516  216.580  221.030  221.157  218.076  210.462  201.578  192.718  183.917  179.842  176.038  177.214  174.798  173.683  174.034  175.603  175.817  174.838  174.861  176.661  176.750  176.238  179.800  181.838  185.404  184.325  185.437  186.925  186.233  188.259  188.486  188.419  190.385  188.131  187.722  186.942  186.406  184.062  182.057  180.820  178.670  178.912  176.811  174.690  174.913  174.991  172.453  172.554  170.162  170.377  169.326  170.017  168.523  168.343  170.112  169.306  168.513  168.419  168.828  169.527  168.403  168.799  169.139  168.835  168.413  167.194  168.611  169.163  168.541  168.046  167.385  168.076  167.690  168.746  169.466  169.086  168.228  170.941  170.196  169.406  169.981  168.567  168.596  171.518  170.343  169.541 
DATE 2017:094:09:36:40 obsn  22 az 100 el 40 freq_MHz  1420.4000 Tsys 153.104 Tant 25.917 vlsr  -41.63 glat -0.149 glon 50.118 azoff 0.00 eloff 0.00 source G50.0 
Fstart 1419.397 fstop 1421.403 spacing 0.009375 bw    2.400 fbw    2.000 MHz nfreq 256 nsam 5242880 npoint 214 integ    19 sigma    0.367 bsw 0
Spectrum     17 integration periods
 169.799  169.540  168.147  169.685  168.318  169.719  168.767  170.214  168.538  168.600  169.477  168.625  169.001  168.750  168.543  169.925  169.202  168.044  167.787  168.500  168.400  168.613  168.798  168.920  169.212  168.578  168.475  168.344  169.274  168.512  167.913  168.445  168.093  168.323  167.959  167.582  167.925  168.723  167.868  169.202  167.825  169.718  168.678  168.012  169.018  169.386  168.471  168.519  169.046  169.362  169.740  168.430  168.623  169.226  170.314  168.670  168.937  168.270  168.430  168.482  168.701  168.196  169.430  170.216  167.880  168.140  168.908  168.857  169.732  174.631  172.285  174.345  169.283  167.711  168.266  169.604  168.691  168.021  167.532  168.408  167.851  167.895  168.272  168.153  170.039  168.819  168.823  168.746  170.472  170.565  169.619  170.619  172.098  172.455  173.294  174.482  178.535  179.305  183.309  188.720  192.620  197.215  200.347  204.800  207.047  211.296  212.192  213.309  213.201  213.091  211.356  209.962  208.804  207.726  206.933  204.762  204.273  203.527  204.576  204.821  205.994  209.686  214.338  213.841  213.392  212.525  213.933  213.820  214.140  216.193  220.787  221.914  217.737  210.037  200.429  189.959  183.174  179.735  176.441  176.389  174.660  173.709  173.982  174.635  175.236  174.485  174.457  175.842  176.325  176.596  179.159  180.802  184.536  182.838  184.843  186.242  185.876  188.042  188.304  188.343  190.349  187.990  187.856  187.168  186.923  184.608  182.508  181.151  178.878  178.912  177.124  175.555  174.402  174.914  172.063  171.207  169.956  169.710  169.465  168.902  167.974  167.331  169.076  168.528  167.939  168.379  168.239  167.959  168.047  168.159  168.550  168.024  167.630  167.129  168.812  168.162  168.262  167.876  167.376  167.310  167.525  167.745  168.287  169.619  168.192  170.591  169.598  169.114  169.427  168.052  168.841  169.805  169.480  169.183 
DATE 2017:094:09:37:07 obsn  23 az  87 el 40 freq_MHz  1420.4000 Tsys 153.104 Tant 26.222 vlsr  -38.21 glat -0.122 glon 60.118 azoff 0.00 eloff 0.00 source G60.0 
Fstart 1419.397 fstop 1421.403 spacing 0.009375 bw    2.400 fbw    2.000 MHz nfreq 256 nsam 5242880 npoint 214 integ     1 sigma    1.513 bsw 0
Spectrum      1 integration periods
 168.736  167.019  168.089  170.665  168.270  168.077  170.725  168.980  167.085  168.038  168.077  168.402  167.236  166.631  168.295  171.148  171.615  168.365  166.178  170.768  168.150  169.347  168.596  169.174  171.391  170.802  169.710  169.222  170.003  168.903  171.275  168.166  168.672  170.518  168.447  166.740  167.908  168.534  167.095  165.758  167.168  169.771  169.304  168.111  167.202  171.361  168.895  167.954  167.046  168.639  170.220  167.770  170.431  167.393  169.851  169.430  170.838  168.278  168.718  168.931  166.893  166.069  173.540  170.296  168.525  168.280  168.668  170.295  170.415  177.561  163.939  172.934  168.946  169.150  168.862  168.841  167.714  167.541  165.779  166.184  167.953  165.745  167.493  166.442  169.349  169.728  169.610  169.777  171.140  171.075  171.204  169.437  174.153  169.341  171.023  174.002  175.204  179.217  184.848  186.477  192.999  198.630  200.181  205.795  209.345  211.780  212.611  216.117  213.586  216.389  213.631  211.333  207.725  207.911  206.574  204.546  199.459  204.243  204.651  206.457  206.034  211.281  212.734  212.344  211.937  214.654  216.240  216.036  210.653  215.328  223.649  220.572  216.927  211.524  203.429  188.808  185.089  180.077  174.638  177.185  176.170  174.732  175.330  173.891  176.519  176.117  172.537  175.868  178.224  179.330  179.310  179.625  183.984  184.131  184.838  179.592  184.834  188.167  191.700  185.814  189.855  187.758  186.442  189.265  185.333  185.149  182.503  181.246  179.103  180.438  177.903  175.630  173.767  177.192  176.295  170.084  168.939  169.523  169.324  170.254  168.410  167.504  172.721  168.695  168.403  169.984  167.096  169.945  167.105  167.919  166.483  170.163  165.375  166.678  170.340  167.923  168.028  171.216  166.472  166.112  166.637  166.852  165.852  170.933  168.958  171.892  167.986  167.567  165.714  169.395  169.897  168.719  166.932  166.579 
DATE 2017:094:09:37:20 obsn  24 az  87 el 40 freq_MHz  1420.4000 Tsys 153.104 Tant 23.615 vlsr  -38.21 glat -0.122 glon 60.118 azoff 0.00 eloff 0.00 source G60.0 
Fstart 1419.397 fstop 1421.403 spacing 0.009375 bw    2.400 fbw    2.000 MHz nfreq 256 nsam 5242880 npoint 214 integ    12 sigma    0.456 bsw 0
Spectrum     11 integration periods
 169.299  168.418  167.194  168.501  167.967  167.592  167.408  169.333  167.519  166.925  167.136  166.756  167.244  166.752  168.088  168.029  168.094  167.352  167.719  167.653  167.675  167.011  168.008  167.901  168.669  167.565  168.411  167.987  167.583  167.431  167.718  167.625  167.639  167.865  167.344  166.983  167.045  167.818  167.294  166.858  166.811  167.482  167.254  166.873  166.808  168.475  167.959  167.410  168.176  168.037  168.794  166.477  167.980  167.695  167.975  167.404  167.723  167.904  168.181  167.902  166.567  167.527  168.344  175.886  167.193  167.130  167.641  167.431  169.514  180.566  174.246  171.548  168.427  167.374  167.353  167.266  167.713  167.392  166.662  167.070  167.101  166.666  167.044  166.629  167.040  167.170  168.136  166.873  168.029  168.500  167.132  168.147  168.369  168.235  167.595  168.138  168.938  168.933  169.548  170.490  171.883  172.512  173.680  175.987  176.811  178.337  179.597  183.107  184.660  189.155  191.459  193.720  196.315  199.593  202.333  205.771  207.716  208.607  210.676  210.307  210.565  212.075  211.580  212.549  212.287  213.420  218.501  224.393  226.754  224.512  220.520  213.569  207.858  202.713  197.344  192.493  189.823  187.886  185.748  185.108  183.155  180.563  178.641  176.092  175.508  174.855  172.838  173.160  173.189  172.424  173.533  173.024  174.483  175.497  176.570  179.057  181.350  182.154  184.495  185.497  189.184  190.707  190.476  190.525  191.418  190.603  187.935  184.982  183.507  181.864  181.198  179.805  177.674  176.466  175.515  173.406  172.475  171.609  170.872  170.954  170.226  169.463  170.159  169.757  168.715  168.424  167.681  167.903  167.111  168.262  167.784  167.527  166.396  167.759  167.721  167.783  167.621  167.299  167.276  167.548  167.841  167.533  167.556  167.703  167.392  173.414  171.952  167.366  167.671  168.718  168.823  167.764  167.093  168.533 
DATE 2017:094:09:37:33 obsn  25 az  87 el 40 freq_MHz  1420.4000 Tsys 153.104 Tant 23.757 vlsr  -38.21 glat -0.122 glon 60.118 azoff 0.00 eloff 0.00 source G60.0 
Fstart 1419.397 fstop 1421.403 spacing 0.009375 bw    2.400 fbw    2.000 MHz nfreq 256 nsam 5242880 npoint 214 integ    23 sigma    0.330 bsw 0
Spectrum     21 integration periods
 169.093  168.320  167.042  168.341  168.052  167.609  167.171  168.745  167.212  167.499  167.123  167.343  167.293  166.873  167.584  167.614  168.255  167.545  167.905  167.164  167.825  167.494  167.911  167.184  168.167  167.562  168.084  167.687  167.738  167.872  167.780  167.699  167.392  168.079  167.508  167.476  167.059  167.896  167.133  167.544  167.047  167.372  167.721  166.888  167.343  168.458  168.047  167.542  167.720  168.050  168.752  167.388  167.543  167.235  167.654  167.398  167.139  167.935  167.584  167.302  166.790  167.125  167.888  176.629  167.520  167.088  167.580  167.142  169.725  179.762  175.371  171.617  167.960  167.367  166.896  167.319  167.493  166.748  166.844  166.841  166.893  166.871  166.817  166.747  167.529  167.456  167.687  167.566  168.079  168.390  167.877  167.896  168.203  167.733  167.777  167.815  168.100  168.438  169.030  170.075  170.565  171.513  172.280  174.577  174.859  176.560  178.704  181.797  183.389  187.806  190.116  193.326  196.009  199.793  202.818  205.593  208.315  209.382  211.021  211.092  211.120  211.723  212.040  212.575  213.082  214.060  218.813  224.361  227.005  224.459  220.850  213.342  207.940  202.693  197.354  192.894  190.289  188.368  186.817  185.279  183.359  180.670  178.556  176.487  175.633  174.800  173.112  172.710  173.299  172.602  173.450  173.160  174.840  175.030  176.871  180.047  181.297  182.798  184.975  185.973  188.625  189.818  190.135  191.200  191.476  190.317  188.263  186.054  183.627  182.208  180.766  179.561  177.912  176.438  175.543  173.593  173.282  171.974  171.147  171.169  170.080  169.837  169.841  169.286  168.955  168.345  167.839  168.170  167.335  168.064  167.461  167.509  166.805  167.267  167.488  167.458  167.623  167.665  167.564  167.775  167.779  167.526  167.580  167.447  167.791  172.747  172.112  167.666  167.633  168.658  168.600  168.332  167.886  168.322 
DATE 2017:094:09:38:00 obsn  26 az  74 el 39 freq_MHz  1420.4000 Tsys 153.104 Tant 22.233 vlsr  -33.63 glat -0.091 glon 70.118 azoff 0.00 eloff 0.00 source G70.0 
Fstart 1419.397 fstop 1421.403 spacing 0.009375 bw    2.400 fbw    2.000 MHz nfreq 256 nsam 5242880 npoint 214 integ     5 sigma    0.677 bsw 0
Spectrum      5 integration periods
 169.000  167.655  168.463  168.624  166.019  168.205  168.486  168.092  167.539  166.050  167.416  168.955  166.674  167.202  166.537  168.208  167.214  166.331  167.481  165.845  168.867  168.074  166.370  166.902  167.293  167.596  167.606  168.006  165.219  166.648  166.262  166.051  167.335  166.631  166.218  166.718  166.308  166.908  168.195  165.565  166.438  166.905  167.222  166.696  166.869  167.269  166.677  167.164  165.967  167.839  167.843  167.121  168.475  167.821  166.758  167.050  166.936  167.781  167.634  166.942  167.793  165.717  167.802  175.079  166.809  166.919  167.289  165.973  168.320  183.926  166.751  170.116  167.199  166.694  167.013  166.018  165.148  164.937  166.307  165.541  166.038  165.277  165.116  167.742  167.415  166.017  166.191  166.131  165.911  167.226  167.402  166.248  165.805  166.539  166.378  166.201  167.606  165.844  166.661  165.722  166.940  166.364  166.764  166.502  166.628  168.974  169.186  169.198  170.312  170.548  171.042  174.185  174.706  177.596  179.977  180.291  184.346  188.460  194.123  198.748  205.121  209.670  213.720  222.012  226.664  233.040  236.446  239.287  236.440  233.087  224.151  216.811  209.251  202.811  198.971  194.171  189.965  187.949  187.097  187.497  183.972  182.208  181.983  179.610  178.275  177.882  175.147  173.994  173.227  171.747  172.399  171.483  172.565  175.403  176.834  179.181  179.240  181.497  182.923  184.922  189.586  190.854  194.314  197.196  197.378  195.909  196.087  192.955  188.272  185.294  181.010  178.944  176.321  172.201  172.188  170.693  171.549  171.945  171.648  170.574  169.135  169.353  170.194  168.640  169.045  168.984  167.303  167.309  165.842  166.164  167.790  164.998  166.407  164.814  164.493  165.198  164.213  166.086  164.349  165.398  165.392  165.829  165.621  166.578  165.595  168.237  166.443  165.676  166.128  165.491  164.834  166.106  166.734  166.016 
DATE 2017:094:09:38:13 obsn  27 az  74 el 39 freq_MHz  1420.4000 Tsys 153.104 Tant 22.324 vlsr  -33.63 glat -0.091 glon 70.118 azoff 0.00 eloff 0.00 source G70.0 
Fstart 1419.397 fstop 1421.403 spacing 0.009375 bw    2.400 fbw    2.000 MHz nfreq 256 nsam 5242880 npoint 214 integ    16 sigma    0.391 bsw 0
Spectrum     15 integration periods
 168.805  167.446  168.300  168.313  166.880  167.980  167.986  168.029  167.371  166.838  168.021  167.602  167.087  166.691  166.737  168.090  167.355  166.568  167.846  166.641  167.729  167.870  167.265  167.208  167.712  167.389  167.181  166.937  167.167  166.287  166.138  166.783  166.794  166.441  166.475  166.083  166.719  166.749  167.266  166.718  166.051  166.926  167.332  166.950  167.011  166.431  167.074  166.871  166.698  167.351  167.723  166.704  168.068  167.445  167.513  167.641  166.851  167.629  166.930  166.686  166.703  166.483  167.587  175.715  166.914  166.706  166.930  166.073  168.148  185.284  172.024  169.783  167.645  167.106  166.640  167.407  166.546  165.671  166.002  166.472  166.306  166.217  166.194  167.336  166.932  166.289  166.335  166.735  166.050  166.757  167.195  166.509  165.896  166.902  166.698  166.715  167.245  166.178  165.911  165.844  166.319  166.560  166.306  166.771  166.597  167.736  166.999  167.687  168.622  168.924  169.100  170.195  171.612  173.085  174.900  176.583  180.254  184.658  191.394  197.016  203.037  209.087  216.213  224.137  230.072  234.849  239.646  241.041  239.101  233.548  225.573  218.116  207.743  202.547  198.180  193.513  190.398  189.551  187.494  188.005  184.670  183.385  181.978  180.565  178.029  177.001  175.201  173.279  172.605  171.703  171.738  171.264  173.163  175.238  176.528  180.078  179.961  181.358  182.563  185.519  189.556  191.826  194.918  198.200  198.714  197.797  197.352  193.856  189.524  185.919  181.760  177.773  175.810  173.651  172.915  171.150  171.129  171.055  170.037  169.782  169.492  169.004  169.286  168.991  169.256  168.257  167.199  166.820  165.994  165.884  166.689  165.310  165.638  164.295  165.818  165.379  165.069  165.379  164.913  165.529  165.220  165.250  165.324  165.290  165.284  167.059  166.475  166.092  166.244  165.627  165.128  165.928  166.141  165.749 
DATE 2017:094:09:38:26 obsn  28 az  74 el 39 freq_MHz  1420.4000 Tsys 153.104 Tant 22.209 vlsr  -33.63 glat -0.091 glon 70.118 azoff 0.00 eloff 0.00 source G70.0 
Fstart 1419.397 fstop 1421.403 spacing 0.009375 bw    2.400 fbw    2.000 MHz nfreq 256 nsam 5242880 npoint 214 integ    27 sigma    0.303 bsw 0
Spectrum     25 integration periods
 168.523  167.661  168.340  168.041  167.371  167.566  167.834  167.921  167.212  166.642  167.654  167.481  166.990  166.762  166.524  167.921  167.271  166.403  167.727  166.870  167.136  167.290  167.263  167.209  167.568  167.103  166.871  166.670  167.409  166.390  166.354  166.552  166.513  166.385  166.178  166.226  166.732  166.671  166.653  166.361  166.312  166.804  166.682  167.076  166.786  167.086  166.700  166.881  166.791  167.388  167.304  166.904  167.528  167.382  167.535  167.238  166.713  167.158  166.969  166.835  166.581  166.581  167.589  174.782  166.395  166.533  167.091  166.305  167.909  185.160  174.246  169.810  167.631  166.692  166.524  167.298  166.480  165.911  166.414  166.425  166.229  166.220  165.986  166.962  167.025  166.030  166.013  166.398  165.815  166.954  166.562  166.514  166.072  166.612  166.688  166.720  167.239  165.956  166.115  166.194  166.633  166.214  165.840  166.545  166.450  167.178  166.534  167.395  167.560  168.440  168.281  169.318  170.759  172.165  174.139  176.028  179.623  184.141  190.714  196.316  202.854  209.233  216.417  224.761  230.568  235.621  240.197  241.631  239.356  234.092  226.141  218.210  208.363  202.317  197.586  193.855  190.739  189.734  188.119  187.993  184.639  183.213  182.081  180.633  178.328  176.858  174.460  173.399  172.481  171.715  171.791  171.710  173.072  175.127  176.497  179.693  180.001  181.255  182.760  185.531  189.496  192.097  195.084  198.451  198.602  198.406  197.541  194.002  189.950  186.286  181.930  177.701  175.235  173.280  172.876  171.553  170.983  170.655  169.822  169.732  169.623  169.115  169.123  168.667  168.974  168.150  167.169  166.982  166.223  165.669  166.123  165.289  165.877  164.729  165.750  165.297  165.078  165.501  165.408  165.356  165.311  165.343  165.262  165.481  165.038  166.785  166.351  165.500  166.174  165.709  165.638  166.273  165.831  166.016 
DATE 2017:094:09:38:53 obsn  29 az  62 el 37 freq_MHz  1420.4000 Tsys 153.104 Tant 24.324 vlsr  -28.03 glat -0.057 glon 80.118 azoff 0.00 eloff 0.00 source G80.0 
Fstart 1419.397 fstop 1421.403 spacing 0.009375 bw    2.400 fbw    2.000 MHz nfreq 256 nsam 5242880 npoint 214 integ    10 sigma    0.504 bsw 0
Spectrum      9 integration periods
 170.014  169.819  169.749  169.281  169.196  169.447  168.567  168.571  168.278  168.840  168.126  168.353  168.584  168.956  168.955  168.016  168.375  168.472  167.864  169.374  169.098  168.841  167.530  168.175  168.722  168.494  166.933  167.834  169.069  168.298  167.608  167.569  167.512  168.345  167.720  167.531  168.320  166.872  168.324  167.381  167.996  168.401  168.460  168.281  168.028  167.938  168.223  168.453  168.319  168.101  168.217  168.578  168.498  167.948  168.443  167.937  167.300  167.716  167.841  168.196  168.150  167.831  167.730  169.562  167.545  166.910  167.652  167.424  169.487  172.658  169.835  170.200  167.924  167.671  167.171  166.903  166.593  166.692  165.460  167.380  166.691  166.881  167.579  167.964  166.726  167.548  167.506  167.423  166.675  167.504  167.206  166.658  167.475  167.521  166.015  166.438  165.981  167.664  166.657  168.386  166.763  166.247  166.455  166.797  167.425  166.180  166.664  166.642  167.710  167.645  167.588  167.411  168.593  170.530  171.551  174.058  177.569  181.333  186.620  195.953  206.508  216.167  224.409  232.500  237.622  240.973  242.732  241.936  241.567  241.562  236.867  231.286  222.053  214.862  207.903  201.432  195.609  193.586  191.854  190.025  190.576  189.866  189.104  188.796  189.501  189.070  187.544  185.907  186.689  185.439  184.868  183.620  181.908  180.221  180.828  182.775  182.266  184.668  188.272  188.881  191.805  192.301  194.754  196.457  197.044  196.001  196.620  195.966  193.980  190.849  189.480  185.624  181.915  179.507  177.008  174.937  173.698  171.334  172.146  170.940  171.866  171.039  170.449  170.346  170.785  169.368  168.390  169.884  168.687  168.178  168.056  168.383  166.996  166.391  167.687  167.448  166.878  166.707  166.901  165.942  166.181  167.244  166.078  166.848  165.906  166.309  167.318  167.490  167.347  167.617  167.796  166.749  166.773  167.297 
DATE 2017:094:09:39:06 obsn  30 az  62 el 37 freq_MHz  1420.4000 Tsys 153.104 Tant 24.500 vlsr  -28.03 glat -0.057 glon 80.118 azoff 0.00 eloff 0.00 source G80.0 
Fstart 1419.397 fstop 1421.403 spacing 0.009375 bw    2.400 fbw    2.000 MHz nfreq 256 nsam 5242880 npoint 214 integ    21 sigma    0.347 bsw 0
Spectrum     19 integration periods
 170.400  170.045  169.870  169.721  169.040  169.680  169.190  169.459  168.175  169.178  168.454  168.778  168.702  168.692  168.791  167.729  168.824  168.426  168.666  169.010  169.277  168.749  168.073  168.662  168.821  168.697  168.063  168.249  169.024  167.916  167.819  168.224  167.656  168.356  168.377  167.794  168.604  166.989  168.237  167.740  167.842  168.495  168.919  167.733  167.987  168.376  167.963  168.266  168.490  168.411  168.616  168.175  168.353  167.958  168.095  167.900  167.481  168.379  168.180  168.379  167.722  167.257  167.690  169.807  167.966  167.250  167.860  167.757  169.163  172.300  170.822  169.922  168.123  167.618  167.129  166.832  167.248  167.478  166.653  167.257  166.935  167.169  167.198  167.485  166.725  167.501  167.134  167.471  167.069  167.312  167.062  166.556  167.149  167.483  166.773  166.439  166.714  167.313  167.150  167.425  166.706  166.576  166.843  166.949  167.690  166.486  166.624  166.789  167.695  167.337  167.958  168.190  168.130  170.734  171.002  172.861  176.642  180.439  187.123  195.739  206.081  217.086  225.531  232.712  238.804  242.068  243.026  242.083  242.313  241.858  236.905  231.374  224.043  215.515  208.005  201.027  196.215  193.747  192.260  191.034  190.794  190.369  189.896  190.354  191.196  190.340  188.239  187.002  186.985  186.157  185.155  183.785  182.625  180.441  180.942  182.834  182.519  184.462  188.130  189.564  192.134  192.363  194.321  195.648  196.415  195.991  196.443  195.912  194.165  191.849  189.607  185.816  182.802  179.619  177.469  174.963  173.491  171.528  171.479  170.724  171.522  170.627  169.787  170.325  170.118  169.741  168.154  169.105  168.203  168.252  168.184  168.405  167.333  167.005  167.365  167.132  166.860  167.038  166.949  166.402  166.840  167.625  166.488  167.001  166.178  166.799  167.024  166.929  167.752  167.749  167.447  166.579  167.064  167.424 
DATE 2017:094:09:39:33 obsn  31 az  51 el 33 freq_MHz  1420.4000 Tsys 153.104 Tant 21.568 vlsr  -21.58 glat -0.022 glon 90.118 azoff 0.00 eloff 0.00 source G90.0 
Fstart 1419.397 fstop 1421.403 spacing 0.009375 bw    2.400 fbw    2.000 MHz nfreq 256 nsam 5242880 npoint 214 integ     3 sigma    0.874 bsw 0
Spectrum      3 integration periods
 169.567  168.703  165.730  168.318  167.563  167.285  167.042  166.319  165.906  167.391  166.878  167.124  167.866  165.748  166.580  167.492  166.527  169.227  167.025  165.988  166.350  166.473  164.897  166.458  166.904  166.386  166.777  169.507  167.492  166.160  167.273  164.635  167.317  165.441  165.442  166.111  166.728  166.176  165.035  166.415  165.637  167.034  168.081  166.384  166.360  166.681  166.717  167.422  167.361  167.113  166.198  166.773  164.658  166.156  167.645  166.665  168.159  165.278  165.064  166.766  165.383  165.802  165.909  166.817  165.275  166.548  166.852  166.318  166.214  177.538  166.438  168.725  166.838  164.142  164.876  166.970  166.805  165.530  166.193  165.938  166.068  164.740  165.544  167.491  166.300  166.692  166.061  165.202  166.804  167.162  165.372  166.389  166.846  164.965  165.286  164.500  167.485  166.655  166.044  166.275  166.097  164.381  163.351  164.988  165.633  166.311  165.643  166.582  166.896  164.322  165.962  166.587  167.516  167.415  168.100  170.755  174.142  176.525  185.088  194.497  206.185  213.416  221.747  224.357  224.940  227.013  226.955  226.966  222.592  220.116  222.044  217.616  213.348  208.386  203.377  196.706  192.497  191.456  187.380  186.754  185.407  186.929  187.734  187.082  191.290  191.555  194.213  194.610  192.214  190.714  191.537  189.312  187.893  185.924  185.097  182.440  184.166  185.823  185.593  188.021  192.392  194.317  195.645  195.995  193.749  194.548  194.426  189.100  189.033  189.021  186.414  182.547  181.239  178.150  177.116  175.269  174.577  171.216  170.284  168.937  172.543  168.318  169.757  168.414  168.458  169.204  168.438  166.182  167.340  166.938  167.091  165.184  166.342  165.696  167.793  164.349  166.788  166.415  165.027  166.110  165.476  163.663  166.488  165.772  165.525  167.105  166.589  166.112  165.345  164.717  166.378  165.702  165.652  165.788 
DATE 2017:094:09:39:46 obsn  32 az  51 el 33 freq_MHz  1420.4000 Tsys 153.104 Tant 21.359 vlsr  -21.58 glat -0.022 glon 90.118 azoff 0.00 eloff 0.00 source G90.0 
Fstart 1419.397 fstop 1421.403 spacing 0.009375 bw    2.400 fbw    2.000 MHz nfreq 256 nsam 5242880 npoint 214 integ    14 sigma    0.420 bsw 0
Spectrum     13 integration periods
 167.361  168.044  166.799  166.805  166.741  166.118  166.489  166.653  165.876  166.625  166.500  166.467  166.466  165.420  165.866  166.730  165.290  165.998  165.995  166.375  165.475  165.959  165.519  165.780  166.395  165.843  166.407  166.305  166.590  165.534  166.851  165.801  165.639  165.785  165.563  165.475  165.759  165.480  165.106  165.427  165.743  166.039  166.448  166.202  165.783  166.178  166.375  166.534  167.003  166.960  165.877  166.437  166.126  166.019  166.413  165.614  166.465  165.759  165.855  166.494  165.405  166.016  165.585  167.328  165.598  165.733  166.136  166.285  166.434  180.714  169.300  168.128  166.490  165.078  164.716  166.048  165.377  165.436  165.654  165.007  165.449  165.355  165.570  166.289  165.660  165.474  165.896  165.213  165.899  165.871  165.102  165.559  165.997  165.315  165.370  164.979  166.115  165.819  165.044  164.947  166.131  164.839  163.795  164.334  164.745  165.920  164.933  165.752  165.093  165.756  165.472  166.556  165.719  166.970  168.043  169.566  172.694  176.362  183.954  193.035  203.829  213.182  219.027  220.093  221.140  218.916  218.869  218.744  216.612  215.260  214.898  212.742  208.347  203.976  201.131  197.033  193.781  190.073  186.712  184.805  184.152  185.297  185.996  186.688  189.813  191.376  195.232  194.896  193.964  193.865  192.566  190.917  189.433  188.035  186.366  184.142  184.711  185.716  186.620  189.066  191.892  193.152  195.666  195.576  195.891  194.547  192.175  188.840  187.388  185.588  184.603  182.931  180.674  178.889  176.667  175.181  173.152  172.151  170.445  169.980  170.253  168.664  169.245  167.765  167.747  167.069  167.023  166.355  166.128  165.970  165.783  165.347  165.886  164.869  166.140  164.867  164.588  164.822  164.963  164.866  163.945  164.044  165.218  165.314  165.110  167.185  166.461  165.440  166.440  164.767  166.290  165.278  165.251  165.067 
DATE 2017:094:09:39:59 obsn  33 az  51 el 33 freq_MHz  1420.4000 Tsys 153.104 Tant 21.308 vlsr  -21.58 glat -0.022 glon 90.118 azoff 0.00 eloff 0.00 source G90.0 
Fstart 1419.397 fstop 1421.403 spacing 0.009375 bw    2.400 fbw    2.000 MHz nfreq 256 nsam 5242880 npoint 214 integ    25 sigma    0.315 bsw 0
Spectrum     23 integration periods
 167.103  167.671  166.794  166.948  166.333  166.157  166.557  166.365  165.923  166.177  165.919  166.016  166.089  165.456  165.752  166.407  165.467  165.622  165.734  166.158  165.463  165.595  165.566  165.302  166.374  165.875  165.741  165.998  166.363  165.730  165.839  165.734  165.175  165.876  165.464  165.755  165.543  165.340  164.865  165.725  165.546  165.926  166.053  165.877  165.843  165.971  166.251  166.135  166.703  166.012  165.502  166.080  165.825  165.969  166.036  165.898  166.233  165.681  165.731  166.140  165.649  165.594  165.998  167.366  165.367  165.756  166.022  165.518  165.975  181.001  168.548  168.016  166.229  165.549  164.823  165.484  165.032  165.245  165.397  164.684  165.005  165.076  165.390  165.997  165.449  165.512  165.807  165.351  165.595  165.687  165.172  165.128  165.888  165.148  164.866  164.923  165.811  165.810  165.129  164.777  165.919  164.918  164.209  164.371  164.606  165.595  164.751  165.106  164.880  165.274  165.221  165.901  165.938  166.794  168.074  169.697  172.466  176.601  183.722  191.961  203.639  212.793  218.285  219.876  220.733  217.969  217.440  216.569  215.638  214.953  213.783  211.620  207.839  203.930  201.018  197.236  193.757  189.545  186.395  184.850  183.917  184.813  185.422  187.109  189.223  191.998  195.173  195.196  194.490  194.011  192.635  191.294  189.810  188.360  186.644  185.501  185.063  185.007  186.415  188.808  191.276  193.329  195.462  195.725  195.755  194.186  192.012  188.658  186.997  185.549  184.113  182.548  180.512  179.066  176.142  174.514  173.048  171.454  170.568  169.469  169.613  168.903  168.972  167.717  167.703  166.461  166.165  166.081  166.232  166.071  165.671  165.267  165.416  164.920  165.784  164.905  164.754  164.841  164.771  164.823  164.386  164.002  165.043  165.398  165.029  166.730  166.294  165.529  165.915  164.980  165.691  165.086  164.687  165.089 
