DATE 2017:094:09:49:23 obsn  34 az 158 el 22 freq_MHz  1420.4000 Tsys 153.104 Tant 27.685 vlsr  -39.05 glat -0.205 glon  0.117 azoff 0.00 eloff 0.00 source G0.0 
Fstart 1419.397 fstop 1421.403 spacing 0.009375 bw    2.400 fbw    2.000 MHz nfreq 256 nsam 5242880 npoint 214 integ     2 sigma    1.070 bsw 0
Spectrum      2 integration periods
 270.655  266.249  269.104  264.065  265.724  261.848  267.873  266.996  268.112  262.018  264.248  265.497  267.824  274.998  268.831  267.229  264.700  266.008  265.201  265.656  267.860  263.789  268.604  269.169  269.539  265.484  269.055  267.772  269.456  267.190  271.785  271.370  266.639  265.037  266.410  266.695  263.148  267.690  267.221  265.970  267.205  267.578  270.172  268.721  275.081  268.061  269.866  269.336  267.326  269.369  267.897  270.350  268.580  270.191  273.593  270.782  268.639  268.909  272.140  269.155  271.276  274.282  274.801  271.010  272.931  275.358  273.299  273.568  275.068  282.554  280.848  308.136  275.465  275.389  268.229  277.668  274.411  270.107  270.536  268.831  270.440  274.725  271.205  272.851  272.600  273.839  271.296  270.354  274.144  276.463  274.311  273.758  273.965  271.017  276.391  276.913  273.122  276.648  269.254  276.450  272.104  273.106  274.303  279.408  281.889  280.065  278.346  282.771  274.844  276.532  275.581  275.499  276.425  275.304  275.503  276.228  282.017  278.776  281.344  283.630  289.959  289.951  293.857  294.257  294.403  295.880  300.830  311.635  307.876  305.959  308.232  314.069  309.381  314.407  309.955  308.711  304.906  299.970  304.593  294.636  292.761  291.480  289.972  292.515  288.284  281.281  288.144  283.724  281.292  280.019  280.886  282.408  278.813  282.938  280.166  291.234  282.096  281.034  283.150  279.299  281.386  282.586  280.498  281.357  282.095  288.151  282.670  287.084  283.124  289.754  283.191  288.632  286.924  279.150  282.691  284.277  283.342  281.827  283.663  281.472  280.417  282.535  281.031  280.144  279.978  279.131  279.469  282.704  280.423  277.637  278.404  280.892  276.822  279.963  284.624  280.318  282.086  279.648  283.538  280.903  285.858  278.771  284.706  281.919  283.236  280.831  282.780  290.620  287.150  283.188  281.563  286.393  285.269  284.848 
DATE 2017:094:09:49:36 obsn  35 az 158 el 22 freq_MHz  1420.4000 Tsys 153.104 Tant 28.016 vlsr  -39.05 glat -0.205 glon  0.117 azoff 0.00 eloff 0.00 source G0.0 
Fstart 1419.397 fstop 1421.403 spacing 0.009375 bw    2.400 fbw    2.000 MHz nfreq 256 nsam 5242880 npoint 214 integ    13 sigma    0.437 bsw 0
Spectrum     12 integration periods
 189.414  189.124  189.351  188.880  188.418  187.152  187.664  188.703  188.700  188.194  187.166  187.603  188.065  189.774  188.065  187.938  187.874  187.871  187.624  187.969  187.859  187.668  188.615  188.243  188.416  188.788  188.353  187.848  188.328  188.725  189.068  188.798  189.298  188.462  187.618  187.752  187.833  188.530  188.043  188.225  187.998  188.606  188.711  188.957  189.787  187.993  189.484  189.522  188.962  189.535  188.942  189.391  188.769  188.856  190.515  189.555  190.930  190.213  189.949  189.464  189.469  190.601  191.465  192.196  191.075  190.684  190.057  190.785  193.527  212.203  203.054  202.061  191.343  192.167  190.310  191.818  191.721  190.474  190.625  190.249  190.311  191.141  190.467  190.757  190.740  190.908  190.573  190.822  190.935  192.035  191.167  190.973  190.754  190.420  191.920  191.551  190.601  191.748  190.273  191.383  191.339  190.964  190.715  192.531  192.182  192.834  191.368  193.663  191.799  192.354  192.243  192.584  192.867  193.984  196.195  196.665  198.505  199.021  202.824  205.264  208.653  212.677  214.380  218.710  223.485  230.131  237.396  244.884  245.686  241.332  243.788  254.926  255.835  251.871  246.865  240.532  235.265  230.129  227.806  223.112  219.511  216.203  213.834  211.458  207.836  204.530  204.922  200.757  199.435  197.764  197.873  196.271  196.878  195.129  194.768  198.741  194.380  194.095  195.297  194.335  195.659  195.697  195.851  195.807  196.030  197.733  196.022  197.006  196.131  198.007  195.151  196.461  195.265  194.872  195.554  194.616  194.463  194.368  193.907  193.510  193.426  192.357  193.417  193.510  193.046  191.739  193.169  193.199  192.886  191.931  192.462  192.786  191.590  192.838  193.258  191.189  192.934  191.893  192.744  191.597  191.634  190.898  192.481  192.794  193.145  193.103  193.525  194.394  193.533  193.055  193.166  194.893  194.292  194.776 
DATE 2017:094:09:49:49 obsn  36 az 158 el 22 freq_MHz  1420.4000 Tsys 153.104 Tant 27.653 vlsr  -39.05 glat -0.205 glon  0.117 azoff 0.00 eloff 0.00 source G0.0 
Fstart 1419.397 fstop 1421.403 spacing 0.009375 bw    2.400 fbw    2.000 MHz nfreq 256 nsam 5242880 npoint 214 integ    24 sigma    0.323 bsw 0
Spectrum     22 integration periods
 182.521  182.321  181.683  181.748  181.460  180.376  180.955  181.621  181.367  181.365  180.378  180.732  180.827  182.189  181.052  180.905  181.223  181.004  180.178  180.837  180.818  180.470  180.881  180.873  180.891  180.903  181.214  180.916  180.855  181.507  181.284  181.343  181.594  180.757  180.615  180.751  180.352  181.260  180.741  181.127  180.550  181.090  181.101  181.785  181.926  181.203  182.288  181.749  181.546  182.069  182.410  182.171  181.240  181.905  183.122  181.786  182.884  182.696  183.079  182.189  181.652  182.524  183.229  184.094  182.697  183.030  182.563  183.035  185.861  205.682  192.080  192.540  183.739  183.817  182.650  184.142  183.788  182.894  182.830  183.415  183.033  183.549  182.744  183.323  183.591  183.386  183.667  183.979  183.668  184.152  183.870  183.086  183.489  183.117  183.792  183.773  183.740  183.680  182.955  183.548  183.683  183.441  183.488  184.433  184.105  185.181  183.989  185.244  184.164  184.883  185.011  185.289  185.972  186.784  188.577  189.715  191.155  192.328  196.161  198.260  201.514  205.274  207.689  211.905  217.281  223.814  232.037  239.342  240.635  235.884  238.114  249.117  250.929  247.091  241.568  234.995  228.943  223.770  220.701  216.266  212.785  209.392  206.781  204.306  200.300  198.271  196.586  193.938  192.804  190.682  190.327  188.937  188.955  187.340  187.376  190.397  187.392  186.805  187.351  187.310  187.578  188.018  188.214  188.181  187.972  189.108  188.539  188.894  187.867  188.933  187.766  188.620  187.247  187.124  187.148  186.389  186.279  186.016  185.897  185.212  185.385  184.519  185.296  185.414  185.128  184.401  184.967  185.011  184.866  184.253  185.180  184.687  183.990  184.621  185.538  183.502  184.296  184.459  184.592  183.658  184.012  183.596  184.593  184.834  184.522  185.149  185.628  185.583  185.294  185.017  185.506  186.627  185.978  186.354 
DATE 2017:094:09:50:13 obsn  37 az 149 el 28 freq_MHz  1420.4000 Tsys 153.104 Tant 27.457 vlsr  -42.20 glat -0.205 glon 10.118 azoff 0.00 eloff 0.00 source G10.0 
Fstart 1419.397 fstop 1421.403 spacing 0.009375 bw    2.400 fbw    2.000 MHz nfreq 256 nsam 5242880 npoint 214 integ     7 sigma    0.618 bsw 0
Spectrum      6 integration periods
 174.401  173.515  174.998  174.532  171.440  171.526  172.131  173.611  171.995  172.299  171.446  174.553  173.865  173.381  171.851  173.250  173.986  173.316  172.265  173.044  173.884  171.297  172.273  172.457  173.651  173.021  172.758  170.738  174.238  171.317  172.216  169.737  171.181  173.730  171.797  171.749  171.842  173.483  171.039  171.749  172.521  174.198  172.296  173.382  173.596  174.681  173.050  173.617  173.279  174.693  175.920  173.426  174.347  174.070  176.286  175.403  174.937  174.687  175.780  175.799  173.382  175.549  177.277  175.798  174.663  173.683  175.266  175.252  177.705  192.049  174.844  183.616  174.194  175.271  174.568  176.388  174.686  173.644  173.681  174.370  173.052  174.935  173.397  173.329  175.912  174.276  174.718  174.038  175.372  174.697  174.210  174.488  174.543  173.842  172.956  173.787  177.963  173.784  174.935  174.549  174.365  175.389  175.079  175.929  175.841  178.345  175.949  176.806  176.806  182.295  180.514  183.112  183.100  186.001  188.355  190.674  191.251  193.100  199.690  199.228  203.343  207.818  211.909  214.213  218.246  223.347  228.554  230.997  230.972  229.552  221.881  223.900  228.942  228.052  223.459  216.758  211.000  209.548  207.704  208.809  204.749  203.009  200.569  199.614  195.239  190.268  188.748  185.390  184.407  180.388  178.679  176.081  178.194  174.731  174.870  176.880  174.606  174.613  173.183  174.247  176.880  174.041  175.007  175.061  174.473  175.823  175.574  175.599  174.783  175.250  174.919  174.619  174.697  178.469  175.474  173.546  175.153  173.496  173.715  173.447  173.570  174.279  176.682  174.113  173.594  173.397  172.853  172.748  172.836  173.503  174.906  171.814  172.252  172.290  174.163  172.947  173.185  171.929  171.793  172.579  171.708  170.635  172.521  174.791  172.970  181.466  178.185  172.238  173.814  173.457  173.086  175.119  173.736  173.932 
DATE 2017:094:09:50:26 obsn  38 az 149 el 28 freq_MHz  1420.4000 Tsys 153.104 Tant 26.168 vlsr  -42.20 glat -0.205 glon 10.118 azoff 0.00 eloff 0.00 source G10.0 
Fstart 1419.397 fstop 1421.403 spacing 0.009375 bw    2.400 fbw    2.000 MHz nfreq 256 nsam 5242880 npoint 214 integ    17 sigma    0.378 bsw 0
Spectrum     16 integration periods
 173.374  173.203  173.500  174.085  171.528  171.326  171.615  172.864  171.309  171.622  170.857  172.384  172.201  172.260  171.382  172.836  173.080  171.937  171.842  172.116  172.870  171.525  172.124  171.601  172.985  171.777  171.740  171.152  174.223  171.045  171.346  170.966  171.744  172.492  171.634  171.585  171.309  172.788  171.708  171.530  172.351  174.227  172.378  172.880  172.767  173.790  172.805  173.574  173.481  174.091  175.367  173.068  173.676  173.873  175.001  174.715  174.246  173.471  174.127  174.406  173.819  174.351  176.747  174.246  173.429  173.623  173.681  174.523  175.486  190.817  175.524  181.587  174.245  174.903  173.720  175.682  173.414  172.636  172.940  172.688  172.708  173.730  172.996  172.319  175.362  173.381  173.616  173.342  175.197  174.458  173.248  173.880  174.200  174.003  173.862  173.633  176.518  173.255  174.444  173.740  173.694  174.282  174.758  174.670  175.181  177.816  176.358  176.773  178.083  181.043  180.389  181.999  183.102  184.930  187.202  189.246  190.589  193.754  200.072  200.285  204.761  208.572  212.419  214.855  218.308  222.151  227.725  229.168  229.487  228.153  219.077  220.181  226.282  226.581  219.835  213.977  209.231  207.563  205.450  207.268  204.226  202.311  200.054  198.376  194.723  190.441  187.592  184.516  182.646  180.030  177.497  175.617  177.350  173.995  174.042  175.403  172.909  172.523  172.424  172.485  175.832  172.534  172.934  172.846  172.324  173.150  173.255  172.970  173.050  174.207  173.023  172.783  172.690  175.708  172.721  171.599  173.089  171.957  171.698  171.557  172.055  171.902  173.994  171.899  172.079  171.357  171.894  171.621  171.529  172.461  172.759  170.876  171.743  170.930  173.165  171.720  171.751  171.023  171.583  171.436  171.057  170.183  170.686  173.933  171.708  181.613  179.258  171.392  172.075  171.552  171.292  173.464  172.117  171.932 
DATE 2017:094:09:50:39 obsn  39 az 149 el 28 freq_MHz  1420.4000 Tsys 153.104 Tant 26.600 vlsr  -42.20 glat -0.205 glon 10.118 azoff 0.00 eloff 0.00 source G10.0 
Fstart 1419.397 fstop 1421.403 spacing 0.009375 bw    2.400 fbw    2.000 MHz nfreq 256 nsam 5242880 npoint 214 integ    28 sigma    0.297 bsw 0
Spectrum     26 integration periods
 173.462  172.447  172.974  173.690  171.746  171.277  171.471  172.987  171.123  171.286  171.616  171.912  172.255  172.038  171.206  172.778  173.242  171.598  171.452  171.945  172.917  171.779  171.878  171.272  172.687  172.010  171.697  171.259  173.990  170.875  170.996  170.889  171.664  171.933  171.513  171.187  171.586  172.955  172.040  171.683  171.770  174.206  172.191  172.367  172.656  173.460  172.756  173.258  173.420  173.816  175.516  173.219  173.605  173.678  174.991  174.244  173.991  173.602  174.290  173.851  173.520  173.963  176.701  174.129  173.424  173.696  173.424  174.430  175.530  190.052  174.517  180.758  174.172  174.611  173.541  175.495  173.451  172.346  172.926  172.648  172.613  172.813  172.620  172.173  175.071  172.936  173.132  173.415  175.177  174.097  173.102  173.786  173.823  173.450  173.555  173.687  176.467  172.947  173.834  173.443  173.563  173.995  174.380  174.551  175.107  177.833  176.090  176.566  178.315  180.505  180.004  181.938  183.039  185.103  186.729  188.726  190.832  194.269  200.274  200.478  204.699  208.770  212.322  215.092  218.708  222.025  227.383  228.466  229.162  227.841  218.661  219.582  225.382  225.512  218.925  212.734  208.813  206.515  205.356  207.386  204.139  202.510  200.136  198.004  194.228  190.199  187.541  184.350  182.376  179.536  177.307  175.624  177.293  174.008  173.754  175.459  172.727  172.028  172.011  171.795  174.810  171.999  172.291  172.060  172.116  172.864  172.743  172.234  172.334  174.104  172.976  172.609  172.563  175.033  172.005  171.116  172.018  171.379  171.657  171.334  171.717  171.438  173.809  171.609  171.363  170.949  171.657  171.205  171.218  171.631  172.203  170.995  171.443  170.712  172.913  170.922  171.375  171.009  170.950  171.232  170.537  170.229  170.702  173.667  171.308  181.758  179.414  171.086  171.496  171.850  171.761  173.281  171.723  171.423 
DATE 2017:094:09:51:11 obsn  40 az 139 el 33 freq_MHz  1420.4000 Tsys 153.104 Tant 23.102 vlsr  -44.08 glat -0.200 glon 20.118 azoff 0.00 eloff 0.00 source G20.0 
Fstart 1419.397 fstop 1421.403 spacing 0.009375 bw    2.400 fbw    2.000 MHz nfreq 256 nsam 5242880 npoint 214 integ    11 sigma    0.478 bsw 0
Spectrum     10 integration periods
 167.287  167.176  166.620  166.882  166.818  166.743  167.050  166.795  165.942  166.556  166.470  166.436  166.290  167.086  166.272  166.950  166.680  165.844  165.733  166.629  166.639  166.916  166.925  166.520  166.629  166.732  166.062  165.946  167.693  165.751  165.164  165.327  166.763  166.409  166.442  165.947  165.946  165.597  166.302  166.755  166.004  166.572  166.031  165.674  166.744  166.462  167.303  166.969  167.523  166.187  166.800  167.025  166.255  167.427  168.250  167.584  167.680  166.740  167.217  167.007  166.663  167.205  168.287  169.016  168.019  168.610  168.418  169.910  171.617  204.473  173.145  176.893  172.299  172.513  171.373  172.297  171.912  171.423  171.997  172.883  171.504  171.440  171.096  172.414  173.124  172.356  173.578  172.472  174.580  174.073  172.953  174.088  174.670  174.083  172.880  174.529  175.871  175.898  176.448  177.907  177.964  179.036  180.429  180.701  182.215  184.983  184.410  186.095  187.022  187.980  189.262  188.518  190.955  191.213  192.982  194.053  195.008  197.288  200.106  201.635  205.439  207.562  210.693  213.143  217.885  217.800  219.245  218.706  215.113  214.959  212.825  213.984  215.633  217.155  215.779  207.495  199.074  192.901  190.701  190.143  188.218  188.309  186.774  186.097  187.080  187.705  187.404  185.884  184.862  182.982  182.124  179.979  179.362  177.271  174.235  172.579  170.909  170.445  168.739  168.821  168.481  168.152  168.058  167.990  168.311  169.009  168.094  168.775  168.182  167.897  167.579  168.768  167.753  169.860  167.838  167.662  168.150  169.457  168.501  168.514  168.620  168.694  169.490  168.741  167.502  167.995  169.038  169.824  168.245  167.787  167.370  168.398  169.395  167.343  168.565  167.433  168.050  168.033  167.824  169.240  168.078  168.346  167.664  169.099  168.539  169.938  171.252  168.804  168.777  169.198  169.621  170.063  168.962  169.273 
DATE 2017:094:09:51:24 obsn  41 az 139 el 33 freq_MHz  1420.4000 Tsys 153.104 Tant 18.524 vlsr  -44.08 glat -0.200 glon 20.118 azoff 0.00 eloff 0.00 source G20.0 
Fstart 1419.397 fstop 1421.403 spacing 0.009375 bw    2.400 fbw    2.000 MHz nfreq 256 nsam 5242880 npoint 214 integ    22 sigma    0.338 bsw 0
Spectrum     20 integration periods
 165.623  165.510  164.998  165.266  165.235  164.809  165.545  165.158  164.407  164.606  164.819  164.055  164.490  165.404  164.550  164.851  165.049  164.293  164.288  164.956  164.570  165.068  165.181  164.567  165.087  164.771  164.501  164.459  164.938  163.863  163.776  164.177  164.114  164.584  164.251  164.327  164.504  163.529  164.050  164.845  164.024  164.371  164.279  164.365  164.606  164.588  164.769  164.766  165.539  165.033  164.629  164.745  164.569  165.405  166.085  165.319  165.413  164.880  165.528  165.426  165.132  165.566  166.270  167.083  165.776  166.795  166.875  168.414  170.197  203.522  172.463  173.963  170.012  170.285  170.087  170.765  170.205  170.010  170.442  170.836  170.293  170.172  169.648  170.343  170.810  170.936  171.167  171.534  172.001  172.414  171.744  172.110  172.391  172.115  172.002  172.714  174.065  174.195  175.825  176.231  177.324  177.725  178.699  179.897  181.341  183.606  182.980  184.670  185.902  186.312  187.130  187.997  189.101  190.383  191.864  192.736  193.763  195.699  197.956  199.634  202.996  206.176  209.027  211.158  215.004  215.583  217.138  216.058  213.451  211.896  210.934  211.581  213.471  214.902  213.513  204.651  196.135  190.648  187.964  187.522  185.784  185.676  184.555  183.649  185.130  185.183  185.335  184.650  183.613  182.342  181.160  178.857  177.642  175.446  173.289  172.331  169.478  168.941  167.338  167.275  166.772  166.755  166.677  166.656  166.919  167.006  166.650  167.061  166.685  166.317  166.278  167.179  166.663  167.683  166.279  166.434  166.303  167.169  167.196  166.800  167.056  167.214  167.230  166.946  166.364  166.785  167.411  167.189  167.141  166.475  166.442  166.966  167.211  166.414  166.971  166.275  166.486  166.718  167.104  167.154  166.843  167.237  166.746  167.689  167.293  168.121  169.137  167.063  167.319  168.162  168.184  167.928  168.588  168.109 
DATE 2017:094:09:51:51 obsn  42 az 128 el 38 freq_MHz  1420.4000 Tsys 153.104 Tant 19.761 vlsr  -44.61 glat -0.188 glon 30.118 azoff 0.00 eloff 0.00 source G30.0 
Fstart 1419.397 fstop 1421.403 spacing 0.009375 bw    2.400 fbw    2.000 MHz nfreq 256 nsam 5242880 npoint 214 integ    10 sigma    0.504 bsw 0
Spectrum      9 integration periods
 164.585  164.067  164.143  163.164  163.620  162.587  161.975  162.602  162.709  162.946  162.913  163.314  163.110  162.519  162.606  162.704  163.620  162.883  162.521  163.790  162.423  163.160  162.355  162.673  161.343  161.954  162.027  161.538  161.666  162.803  162.220  161.382  162.192  162.277  163.094  162.537  161.754  162.231  162.106  162.055  161.720  161.905  161.312  161.886  163.041  162.697  162.509  163.148  162.017  163.110  162.466  162.118  163.159  162.390  163.310  162.647  163.255  162.666  162.488  162.402  161.871  162.532  161.850  164.628  162.312  161.839  163.182  162.065  165.171  185.116  164.223  170.729  164.229  164.316  164.306  165.166  166.878  168.046  169.755  170.913  172.142  175.539  175.457  177.635  179.191  181.306  180.715  181.915  181.654  183.656  182.291  183.372  182.219  182.773  182.061  182.080  182.809  183.699  183.097  183.587  182.484  183.571  182.110  182.863  183.916  183.542  182.817  183.004  183.241  184.731  186.329  187.565  188.347  190.193  190.087  190.833  190.069  190.460  191.134  192.285  194.162  196.689  199.740  202.323  204.348  203.952  204.401  204.501  204.248  204.927  203.661  200.632  201.027  203.663  205.996  201.451  191.161  181.469  177.382  175.359  174.685  174.737  174.764  175.266  176.170  176.509  175.879  176.374  176.526  177.661  177.443  178.132  178.402  179.505  178.758  177.749  176.373  175.425  173.812  172.166  169.668  168.840  166.569  165.343  165.092  164.502  164.349  163.780  162.986  164.122  162.333  162.420  163.149  163.170  162.988  163.192  163.294  163.066  162.117  162.756  162.944  162.317  163.587  162.923  162.838  162.624  162.659  161.096  162.443  163.313  163.382  163.239  162.782  163.735  163.690  163.223  163.325  163.288  162.783  163.384  163.405  162.556  162.636  163.073  164.016  167.768  166.257  163.499  162.989  162.745  163.231  164.056  163.745  163.334 
DATE 2017:094:09:52:04 obsn  43 az 128 el 38 freq_MHz  1420.4000 Tsys 153.104 Tant 20.543 vlsr  -44.61 glat -0.188 glon 30.118 azoff 0.00 eloff 0.00 source G30.0 
Fstart 1419.397 fstop 1421.403 spacing 0.009375 bw    2.400 fbw    2.000 MHz nfreq 256 nsam 5242880 npoint 214 integ    21 sigma    0.347 bsw 0
Spectrum     19 integration periods
 164.559  164.191  164.264  163.502  163.690  163.254  162.385  163.047  163.506  162.751  163.228  163.258  162.920  162.543  162.629  162.946  163.638  163.326  162.573  163.514  162.599  162.800  161.953  162.592  162.213  162.390  162.411  161.853  162.389  162.945  162.612  162.205  161.932  162.233  162.909  162.693  162.041  162.780  162.303  162.281  161.516  161.383  161.419  161.980  163.048  162.485  162.594  163.098  162.301  162.450  162.275  162.469  162.494  162.651  163.189  163.291  163.320  162.938  162.406  163.020  162.352  162.497  162.192  164.442  162.361  162.477  162.922  162.797  164.942  184.376  166.104  170.280  164.303  164.215  163.903  165.465  166.947  167.821  169.938  171.261  173.546  175.608  176.791  178.457  180.264  181.229  181.740  182.580  183.371  184.779  183.685  183.639  183.063  183.208  182.493  183.128  183.812  183.791  183.724  184.319  183.362  184.304  182.616  183.741  183.801  183.039  183.553  183.146  183.777  185.324  186.581  188.187  188.879  190.560  190.310  190.154  190.068  190.596  190.728  192.206  194.340  196.788  199.236  201.835  202.761  203.870  204.009  204.074  204.194  204.508  203.888  200.788  201.289  203.327  205.669  201.430  190.632  180.766  176.649  174.531  174.445  175.062  175.193  175.354  176.459  175.985  176.236  175.876  176.366  177.534  177.891  178.979  179.285  179.718  179.758  178.459  177.781  175.757  174.561  172.375  170.138  168.301  166.998  165.826  165.207  164.642  164.027  164.270  163.413  163.568  162.578  162.781  163.073  163.091  163.145  162.853  163.083  162.796  162.350  163.359  163.156  162.867  163.155  163.479  163.067  162.659  163.261  162.405  162.749  163.335  163.135  162.884  163.470  163.361  163.247  162.850  162.969  163.149  162.368  162.701  162.970  162.727  162.343  163.348  163.354  167.641  166.709  163.389  163.031  162.828  163.624  163.523  163.686  163.469 
DATE 2017:094:09:52:31 obsn  44 az 116 el 41 freq_MHz  1420.4000 Tsys 153.104 Tant 19.847 vlsr  -43.78 glat -0.171 glon 40.118 azoff 0.00 eloff 0.00 source G40.0 
Fstart 1419.397 fstop 1421.403 spacing 0.009375 bw    2.400 fbw    2.000 MHz nfreq 256 nsam 5242880 npoint 214 integ     3 sigma    0.874 bsw 0
Spectrum      3 integration periods
 164.573  162.409  162.649  162.055  162.511  163.142  162.006  164.031  163.290  163.600  162.556  162.749  162.515  162.635  161.924  161.972  162.913  161.759  161.481  162.128  161.517  161.733  162.542  162.329  162.232  160.792  163.213  161.897  163.104  161.954  161.759  162.665  162.576  161.792  162.144  161.119  160.520  161.512  162.749  161.476  161.923  162.448  161.336  162.673  162.434  161.174  161.515  162.486  162.345  161.831  162.203  160.694  162.356  163.898  164.192  162.742  162.971  163.430  163.411  162.670  161.555  163.358  162.892  163.720  161.711  163.367  162.434  162.794  164.849  168.698  161.696  165.085  163.743  163.424  161.850  162.764  163.394  164.734  164.078  166.158  165.833  166.151  168.076  170.757  170.676  171.563  173.049  173.439  175.124  177.846  177.674  178.355  180.823  183.411  186.011  184.278  185.269  185.147  185.499  187.161  189.087  188.892  189.464  188.756  191.037  193.686  191.274  190.572  191.739  192.649  192.426  192.410  196.430  196.311  196.176  197.276  199.333  200.038  203.801  204.268  202.520  202.586  205.493  203.858  203.579  198.896  201.686  200.898  204.729  206.053  203.942  204.909  203.847  205.409  199.712  192.931  181.121  175.054  171.843  170.245  169.936  170.890  170.222  169.832  171.380  170.345  172.579  174.005  174.609  176.072  177.049  179.913  181.432  179.622  180.590  182.295  179.062  178.322  177.583  176.371  176.945  174.826  173.949  173.854  172.645  172.571  170.759  169.066  166.881  166.356  165.785  165.152  164.367  163.697  161.696  163.676  163.256  163.259  162.578  162.577  163.472  163.684  162.007  162.211  163.039  162.959  162.469  163.123  162.604  162.002  163.005  163.076  161.932  162.922  161.818  162.348  161.994  161.509  161.500  164.854  163.498  164.487  161.782  162.314  164.539  166.149  164.841  162.776  164.336  163.255  164.105  163.946  163.545  165.028 
DATE 2017:094:09:52:44 obsn  45 az 116 el 41 freq_MHz  1420.4000 Tsys 153.104 Tant 20.963 vlsr  -43.78 glat -0.171 glon 40.118 azoff 0.00 eloff 0.00 source G40.0 
Fstart 1419.397 fstop 1421.403 spacing 0.009375 bw    2.400 fbw    2.000 MHz nfreq 256 nsam 5242880 npoint 214 integ    14 sigma    0.420 bsw 0
Spectrum     13 integration periods
 164.585  163.099  163.112  162.567  162.367  162.675  161.992  163.132  162.328  161.748  161.642  162.004  162.337  161.875  161.397  162.337  161.983  161.858  160.627  161.781  161.462  161.735  161.607  162.222  162.448  160.701  162.010  161.244  162.307  161.931  161.175  160.989  161.637  160.967  161.719  161.556  160.806  161.458  160.981  160.818  161.473  162.218  161.526  161.505  161.604  161.441  161.430  161.770  161.753  162.175  162.367  162.180  161.799  162.448  163.908  162.753  163.204  162.278  162.723  162.154  161.634  162.137  162.754  163.580  161.363  162.034  161.759  161.724  162.800  164.942  163.946  162.611  162.105  161.336  161.690  162.398  162.033  162.463  163.039  163.480  163.451  164.177  165.042  165.680  166.775  166.808  168.739  169.668  170.758  172.828  175.384  178.051  179.722  180.962  183.958  184.232  185.537  185.215  186.214  188.551  188.366  190.002  190.783  192.244  194.429  195.326  194.615  195.624  195.168  195.120  193.673  194.396  196.538  197.691  200.006  202.518  204.014  205.231  207.870  207.085  206.441  205.013  204.907  202.888  202.176  199.901  200.587  201.809  204.077  205.426  205.721  207.491  206.544  204.464  198.008  189.037  179.353  173.793  169.750  168.854  168.008  168.689  168.624  169.364  169.736  170.069  171.738  172.694  174.237  176.268  178.121  179.975  181.328  180.916  180.271  180.840  179.120  178.614  178.497  178.090  178.353  176.438  178.045  177.800  175.891  173.934  171.144  169.938  167.297  166.837  164.597  164.772  164.056  163.715  163.359  164.082  162.628  162.727  162.035  161.662  163.053  162.828  162.471  161.858  162.328  162.787  162.232  163.055  162.283  162.537  162.874  163.578  163.024  163.220  162.565  162.677  162.256  162.123  162.472  163.498  162.720  163.588  162.777  163.029  163.267  164.461  164.303  163.075  163.096  163.480  164.900  164.368  164.118  163.580 
DATE 2017:094:09:52:57 obsn  46 az 116 el 41 freq_MHz  1420.4000 Tsys 153.104 Tant 20.637 vlsr  -43.78 glat -0.171 glon 40.118 azoff 0.00 eloff 0.00 source G40.0 
Fstart 1419.397 fstop 1421.403 spacing 0.009375 bw    2.400 fbw    2.000 MHz nfreq 256 nsam 5242880 npoint 214 integ    25 sigma    0.315 bsw 0
Spectrum     23 integration periods
 164.510  163.110  163.194  162.774  162.493  162.603  162.082  163.169  162.687  162.331  162.111  162.021  162.337  162.138  161.899  162.554  162.133  162.234  161.839  161.854  161.717  161.728  161.389  162.103  162.830  161.510  161.933  161.559  162.859  161.656  161.564  161.618  161.360  161.196  161.709  161.442  161.476  161.630  161.189  161.477  161.201  162.007  161.843  161.741  161.599  161.610  161.863  162.217  161.938  161.915  162.665  162.665  162.445  162.551  164.042  163.007  163.004  162.375  162.746  162.108  161.565  162.543  162.873  163.974  161.399  161.907  162.010  161.932  162.561  164.991  165.032  163.227  161.987  161.744  162.104  162.358  161.968  162.224  163.003  163.139  163.456  164.059  164.411  165.425  166.237  166.503  168.456  169.329  170.836  173.084  175.470  177.784  179.908  181.385  184.173  184.880  185.925  186.136  187.148  189.151  189.188  190.312  191.537  193.013  194.495  196.094  195.978  196.567  195.612  195.870  194.817  195.221  196.717  198.070  200.922  203.409  205.053  206.618  208.831  207.457  207.154  205.477  204.786  203.372  202.488  200.745  201.179  201.840  204.591  205.712  205.736  207.936  207.375  204.288  198.293  188.526  179.504  174.164  169.998  169.314  168.672  168.625  168.804  169.077  170.077  170.031  171.478  172.870  174.585  176.636  178.344  180.065  181.251  181.014  180.568  181.368  179.122  178.598  178.825  178.872  179.007  177.709  178.651  178.396  176.843  174.864  171.950  170.062  167.561  167.037  165.062  164.742  164.501  164.069  163.460  163.590  162.995  163.004  162.515  162.114  162.998  163.208  163.146  162.546  162.755  163.003  162.533  162.333  163.197  163.074  163.274  163.602  162.934  163.386  162.731  162.853  162.244  162.828  162.639  163.072  162.820  163.432  163.125  163.488  163.191  164.476  164.150  163.408  163.521  163.237  164.602  164.465  163.996  163.628 
DATE 2017:094:09:53:24 obsn  47 az 103 el 43 freq_MHz  1420.4000 Tsys 153.104 Tant 18.445 vlsr  -41.63 glat -0.149 glon 50.118 azoff 0.00 eloff 0.00 source G50.0 
Fstart 1419.397 fstop 1421.403 spacing 0.009375 bw    2.400 fbw    2.000 MHz nfreq 256 nsam 5242880 npoint 214 integ     8 sigma    0.572 bsw 0
Spectrum      7 integration periods
 162.081  162.199  161.557  161.536  161.154  161.028  160.652  161.733  162.116  161.539  160.548  161.018  160.594  161.249  161.668  161.327  160.465  161.045  161.653  160.855  160.063  160.987  160.443  161.347  160.747  160.542  161.331  159.943  161.374  160.575  161.127  160.919  161.542  160.320  160.966  159.712  161.114  160.635  159.930  160.717  159.254  161.154  160.649  161.805  160.885  160.370  161.039  160.391  160.476  160.588  160.855  160.546  160.426  161.034  162.249  161.308  160.834  160.784  160.699  160.489  160.617  161.008  160.955  161.125  161.975  160.673  161.437  160.827  161.482  168.760  162.310  163.706  161.261  160.863  160.585  159.719  159.806  160.396  159.844  160.720  161.047  161.340  162.007  160.676  161.085  161.760  161.324  162.527  162.248  162.451  162.677  165.308  164.310  165.893  166.442  170.266  171.079  174.347  176.886  181.576  186.065  191.053  193.697  196.601  200.097  201.792  204.387  205.430  205.906  203.138  202.550  202.055  200.156  199.282  198.253  196.734  195.503  195.614  195.999  196.404  198.788  203.203  204.525  206.166  204.606  204.349  204.655  203.991  205.215  206.293  210.265  210.313  208.848  200.713  192.609  182.062  174.797  173.629  169.849  168.454  166.689  167.280  167.288  167.184  169.072  167.268  167.775  169.077  169.280  172.185  172.628  174.579  174.822  177.315  178.041  179.610  179.103  179.897  180.995  181.133  181.475  180.376  181.813  180.050  178.337  177.210  174.910  173.855  172.295  170.597  169.027  168.901  165.778  166.210  165.006  163.870  164.128  162.926  163.436  163.732  163.394  162.066  161.063  163.295  162.527  163.059  161.395  162.947  162.600  163.494  162.961  162.821  162.630  162.741  162.432  163.109  162.107  163.323  161.435  162.933  161.699  161.968  162.413  162.709  162.328  165.458  164.140  163.453  162.952  164.040  163.401  163.635  163.049  162.449 
DATE 2017:094:09:53:38 obsn  48 az 103 el 43 freq_MHz  1420.4000 Tsys 153.104 Tant 18.589 vlsr  -41.63 glat -0.149 glon 50.118 azoff 0.00 eloff 0.00 source G50.0 
Fstart 1419.397 fstop 1421.403 spacing 0.009375 bw    2.400 fbw    2.000 MHz nfreq 256 nsam 5242880 npoint 214 integ    19 sigma    0.367 bsw 0
Spectrum     17 integration periods
 162.403  162.318  161.161  161.154  161.572  161.160  160.928  161.557  161.167  160.828  160.647  160.830  160.109  160.911  161.219  160.646  160.483  160.886  160.368  160.946  160.261  160.479  160.603  160.908  160.610  160.827  160.745  160.088  161.001  160.813  160.950  160.138  161.091  160.717  160.871  160.301  160.587  160.736  159.981  159.964  160.237  160.857  160.011  160.529  160.843  161.035  160.271  160.454  160.967  161.175  160.884  160.647  160.420  161.000  162.329  161.241  160.841  160.429  160.990  161.306  160.568  160.797  160.195  161.015  161.107  160.534  160.797  160.640  161.901  169.173  162.679  164.167  161.288  160.731  159.950  160.050  160.828  160.377  160.021  160.512  161.073  160.674  160.588  160.577  160.568  161.439  161.419  162.000  161.463  161.930  162.374  163.503  163.375  164.445  165.388  168.185  169.798  173.056  176.358  180.573  185.776  190.551  193.857  197.708  200.830  203.059  204.783  206.526  205.762  204.920  203.736  202.352  200.496  199.957  198.024  196.154  195.311  194.449  194.700  196.094  198.130  202.174  204.351  205.924  204.917  204.162  204.185  204.122  204.642  207.488  211.910  210.933  208.504  201.619  191.735  182.139  175.013  174.034  169.088  168.075  167.195  167.084  167.681  167.399  169.096  166.990  167.848  169.127  168.859  170.815  172.273  173.774  175.008  176.465  177.490  179.781  180.028  180.587  181.336  181.644  181.712  180.553  180.598  180.783  179.301  177.606  176.166  174.381  171.947  171.521  170.087  168.881  167.273  166.193  164.967  164.594  164.110  163.016  163.286  162.797  162.961  162.155  161.479  162.612  162.640  163.012  161.792  163.063  162.957  163.036  162.642  162.128  162.492  162.868  162.298  162.973  162.002  162.897  162.574  162.704  162.041  162.546  162.237  163.010  162.688  164.884  164.361  162.991  162.912  163.192  163.750  163.350  163.468  162.618 
DATE 2017:094:09:54:04 obsn  49 az  89 el 44 freq_MHz  1420.4000 Tsys 153.104 Tant 18.760 vlsr  -38.21 glat -0.122 glon 60.118 azoff 0.00 eloff 0.00 source G60.0 
Fstart 1419.397 fstop 1421.403 spacing 0.009375 bw    2.400 fbw    2.000 MHz nfreq 256 nsam 5242880 npoint 214 integ     1 sigma    1.513 bsw 0
Spectrum      1 integration periods
 161.450  161.959  163.183  158.375  161.714  160.525  162.200  159.858  159.895  159.022  160.244  162.739  161.198  161.048  157.722  158.057  160.029  158.725  161.255  159.954  157.556  161.154  159.962  163.931  164.458  161.143  161.979  162.089  162.301  161.568  162.096  159.576  160.437  158.809  161.030  161.536  160.339  160.334  160.340  160.130  162.567  159.859  160.500  158.342  163.011  159.376  160.921  161.328  159.474  162.700  161.759  160.533  162.172  159.089  165.387  161.621  161.168  161.074  157.891  161.090  160.927  161.441  157.660  161.338  158.385  158.803  161.474  157.958  160.414  166.517  160.153  167.008  161.497  162.499  159.633  160.949  160.462  161.171  163.082  160.318  159.673  160.509  159.168  160.248  158.795  160.021  160.917  162.944  159.941  163.871  161.173  165.267  161.860  163.824  164.597  166.715  167.219  170.788  175.176  179.037  189.293  192.743  191.333  195.711  200.290  204.157  206.159  205.950  208.230  203.832  205.366  202.267  202.083  203.481  197.204  194.849  192.871  194.517  194.294  194.106  197.713  204.751  206.679  201.977  204.001  205.697  203.434  204.098  203.190  210.492  212.102  211.909  208.846  199.129  191.669  180.634  175.599  175.742  166.403  170.575  171.313  168.049  164.746  167.422  171.839  166.948  169.757  170.536  170.122  172.560  172.736  170.983  174.461  177.200  179.537  179.024  177.337  180.716  181.308  180.594  183.881  179.739  182.849  181.370  177.001  181.218  177.407  174.761  175.260  171.197  170.988  168.463  169.286  164.927  165.810  163.465  164.519  165.652  163.366  162.234  162.066  161.872  161.911  161.477  161.828  162.161  161.727  161.888  162.178  161.650  163.947  161.724  163.763  164.301  165.641  164.788  163.662  164.917  162.988  163.631  163.339  162.541  160.390  162.981  162.553  168.214  165.033  165.637  164.570  162.887  164.656  162.194  162.824  163.282 
DATE 2017:094:09:54:18 obsn  50 az  89 el 44 freq_MHz  1420.4000 Tsys 153.104 Tant 15.205 vlsr  -38.21 glat -0.122 glon 60.118 azoff 0.00 eloff 0.00 source G60.0 
Fstart 1419.397 fstop 1421.403 spacing 0.009375 bw    2.400 fbw    2.000 MHz nfreq 256 nsam 5242880 npoint 214 integ    12 sigma    0.456 bsw 0
Spectrum     11 integration periods
 161.904  160.340  160.330  160.514  160.698  160.218  160.620  159.511  159.164  159.020  159.526  160.689  159.492  159.240  158.390  159.197  158.999  159.859  160.249  159.910  159.431  159.452  159.915  159.365  159.765  160.436  159.661  159.967  159.942  159.273  159.508  159.038  159.866  158.966  158.935  159.175  159.171  159.020  159.546  158.697  159.442  159.063  158.169  159.399  159.210  159.266  159.624  159.586  159.627  159.951  159.988  159.089  159.187  158.819  160.231  160.408  160.026  159.146  158.923  159.364  158.746  159.762  159.472  165.712  158.463  159.059  159.415  159.123  160.719  176.499  171.166  162.693  160.120  159.021  159.089  158.081  158.952  158.794  159.948  158.446  159.027  158.506  159.563  159.074  158.898  158.899  159.029  159.694  159.819  159.653  159.795  159.663  159.534  160.006  159.429  159.968  159.585  159.686  160.487  162.409  163.456  163.681  164.995  166.508  166.800  168.454  170.751  172.599  175.020  177.421  181.263  183.886  186.665  190.727  191.874  193.725  196.701  198.382  198.780  198.717  199.524  201.117  200.545  200.957  202.118  204.023  207.752  213.300  215.685  213.977  209.230  203.976  198.384  193.464  187.855  183.338  180.046  179.785  175.504  175.187  173.905  171.402  169.276  168.185  167.474  165.657  165.881  164.915  164.395  164.924  165.114  166.127  164.937  166.841  169.432  170.623  173.482  174.808  177.190  179.376  179.781  181.231  182.021  182.994  182.694  183.611  180.216  178.916  176.678  175.666  174.385  172.040  171.353  170.143  168.387  166.704  165.350  165.137  164.577  163.889  163.073  163.471  162.063  162.458  161.006  160.673  160.728  161.104  160.353  161.065  160.220  159.984  159.930  159.731  160.639  160.438  159.398  160.335  159.704  159.990  160.047  160.158  159.435  160.807  160.141  163.061  161.438  159.956  160.382  159.996  160.675  160.824  160.874  160.301 
DATE 2017:094:09:54:31 obsn  51 az  89 el 44 freq_MHz  1420.4000 Tsys 153.104 Tant 15.132 vlsr  -38.21 glat -0.122 glon 60.118 azoff 0.00 eloff 0.00 source G60.0 
Fstart 1419.397 fstop 1421.403 spacing 0.009375 bw    2.400 fbw    2.000 MHz nfreq 256 nsam 5242880 npoint 214 integ    23 sigma    0.330 bsw 0
Spectrum     21 integration periods
 161.542  160.456  160.480  160.746  160.830  160.087  160.807  159.972  159.491  159.743  159.890  160.098  159.277  159.377  159.142  159.661  159.734  160.025  160.344  159.595  159.653  159.501  159.763  159.453  159.708  160.305  159.521  159.605  159.607  159.572  159.455  159.679  159.678  159.031  158.900  159.744  159.347  159.592  159.575  158.806  159.038  158.931  158.919  159.391  159.083  159.464  159.203  159.351  159.828  159.685  160.020  159.233  159.189  159.115  160.536  160.272  159.768  159.427  158.936  159.243  158.550  159.742  159.404  165.824  158.954  159.252  159.382  159.010  161.229  176.416  170.302  162.177  159.740  159.078  158.882  158.457  159.347  158.863  159.692  158.773  159.092  159.238  159.323  158.835  158.671  158.781  159.574  159.315  159.731  159.234  159.215  159.590  159.534  159.478  159.204  160.002  159.705  159.256  160.183  161.651  162.615  162.442  163.489  165.143  165.331  167.244  169.923  170.928  173.484  176.604  179.426  182.875  185.922  189.809  191.881  193.687  197.035  198.687  198.920  199.300  199.584  200.759  200.468  200.974  202.221  204.060  207.710  213.316  215.874  214.164  210.040  203.452  197.375  193.140  187.509  183.272  180.906  179.596  176.171  175.589  173.647  171.817  169.704  168.418  167.360  165.832  164.962  164.516  164.389  164.301  164.795  165.757  165.603  166.476  168.842  170.952  172.629  174.713  176.927  179.232  179.824  181.265  182.736  183.221  183.360  182.910  180.663  179.177  176.811  175.411  174.161  172.367  171.492  169.711  168.582  167.240  165.273  165.046  164.054  163.706  163.195  162.867  162.055  161.907  161.100  160.714  160.632  160.772  160.154  160.893  159.804  159.993  159.886  159.305  160.349  160.215  159.547  159.972  159.385  159.771  159.914  159.802  159.873  160.167  160.088  162.507  161.276  160.279  160.269  159.996  160.519  160.375  160.604  160.329 
DATE 2017:094:09:54:58 obsn  52 az  76 el 43 freq_MHz  1420.4000 Tsys 153.104 Tant 13.497 vlsr  -33.63 glat -0.091 glon 70.118 azoff 0.00 eloff 0.00 source G70.0 
Fstart 1419.397 fstop 1421.403 spacing 0.009375 bw    2.400 fbw    2.000 MHz nfreq 256 nsam 5242880 npoint 214 integ     5 sigma    0.677 bsw 0
Spectrum      5 integration periods
 161.862  158.857  158.991  159.762  159.499  158.068  158.075  160.338  158.976  157.736  158.353  159.025  157.590  158.398  156.193  159.244  158.515  157.608  158.639  157.833  157.481  158.103  158.186  157.727  158.648  158.376  158.638  157.760  158.015  158.011  158.669  159.459  157.263  157.977  158.817  156.969  155.444  157.748  157.730  159.116  158.126  157.398  157.129  157.727  158.049  158.053  158.128  157.693  158.287  157.007  158.664  157.527  158.542  157.286  158.913  158.216  159.456  157.430  156.785  156.729  158.693  158.907  157.903  163.136  157.369  156.721  157.732  159.805  160.486  169.050  165.982  161.162  157.669  157.436  157.262  158.673  157.379  156.869  156.670  157.263  157.391  157.574  158.576  156.726  157.059  157.751  156.858  157.896  158.434  158.429  158.451  158.338  158.204  158.047  157.349  157.915  158.549  157.006  157.347  157.267  157.691  159.506  158.016  158.911  158.131  159.213  159.249  160.489  161.029  162.581  162.741  164.296  164.979  167.609  169.655  174.146  177.452  178.796  185.202  189.297  192.760  199.074  203.528  210.336  213.683  215.402  221.385  222.590  224.119  219.531  211.685  203.235  197.280  191.300  186.811  182.699  181.456  181.163  178.403  178.274  174.926  174.833  172.621  169.209  167.982  168.303  166.200  165.016  164.699  163.117  163.061  165.221  166.138  167.350  167.532  171.407  172.057  174.014  174.771  177.258  180.072  183.662  185.563  188.393  188.795  188.807  188.156  184.565  181.741  178.112  174.804  170.354  170.177  168.038  165.382  164.409  165.926  164.135  163.267  163.287  163.775  162.363  163.115  162.370  162.518  162.928  161.979  162.342  160.467  159.542  158.582  158.029  160.968  157.847  158.941  159.683  159.020  158.869  158.701  158.647  161.067  158.481  160.022  158.853  159.405  161.123  162.104  159.719  160.552  160.416  160.684  158.656  159.869  158.652 
DATE 2017:094:09:55:11 obsn  53 az  76 el 43 freq_MHz  1420.4000 Tsys 153.104 Tant 13.247 vlsr  -33.63 glat -0.091 glon 70.118 azoff 0.00 eloff 0.00 source G70.0 
Fstart 1419.397 fstop 1421.403 spacing 0.009375 bw    2.400 fbw    2.000 MHz nfreq 256 nsam 5242880 npoint 214 integ    16 sigma    0.391 bsw 0
Spectrum     15 integration periods
 160.251  158.607  158.887  159.336  159.002  158.506  158.325  158.616  158.347  158.843  157.825  158.499  158.726  158.204  157.304  159.223  158.729  158.085  158.272  157.898  157.679  157.825  157.859  158.114  159.093  157.999  158.113  157.825  158.674  157.295  158.251  158.196  157.866  158.079  157.809  157.401  156.875  157.616  157.569  158.032  157.320  158.242  157.624  158.078  157.419  157.961  157.994  157.715  157.457  157.097  157.983  157.477  158.285  157.755  158.757  157.958  158.524  157.394  157.664  157.402  158.371  158.632  158.807  163.044  157.946  157.527  157.543  158.517  159.913  168.329  161.016  160.687  158.040  157.574  156.911  158.707  156.949  156.799  156.765  157.501  157.357  157.733  157.800  157.769  157.940  157.499  157.163  157.521  158.067  157.662  158.264  158.247  157.389  157.639  157.386  157.860  158.747  157.167  157.266  157.180  158.281  158.111  157.388  158.019  158.019  158.615  157.935  159.007  159.285  159.939  160.482  160.925  162.493  164.590  166.329  169.121  172.777  175.512  182.601  187.055  192.290  197.661  204.379  211.127  215.781  219.678  224.060  225.791  224.842  220.609  212.722  204.854  196.806  190.395  187.314  182.982  180.703  180.488  178.869  178.410  175.754  174.588  172.407  170.301  168.643  167.441  166.409  165.208  164.406  163.825  164.091  165.016  166.609  167.386  168.863  170.805  172.001  173.064  175.346  176.777  180.746  183.589  185.572  189.058  189.567  190.738  189.022  186.487  182.120  179.025  174.416  171.006  168.544  167.698  165.547  164.954  165.196  163.123  163.210  162.815  163.099  162.574  163.328  162.487  161.889  161.966  161.658  162.488  160.211  159.398  158.954  159.154  159.684  158.772  159.080  159.060  158.549  158.721  158.356  158.477  159.819  158.903  159.056  159.079  159.368  160.345  161.021  159.463  160.189  159.599  160.101  160.167  160.116  159.594 
DATE 2017:094:09:55:24 obsn  54 az  76 el 43 freq_MHz  1420.4000 Tsys 153.104 Tant 13.156 vlsr  -33.63 glat -0.091 glon 70.118 azoff 0.00 eloff 0.00 source G70.0 
Fstart 1419.397 fstop 1421.403 spacing 0.009375 bw    2.400 fbw    2.000 MHz nfreq 256 nsam 5242880 npoint 214 integ    27 sigma    0.303 bsw 0
Spectrum     25 integration periods
 160.069  158.585  158.774  159.155  158.585  158.482  158.383  158.903  158.053  158.629  157.789  158.323  158.236  158.219  157.064  158.885  158.332  157.787  158.388  158.060  158.037  157.755  158.057  158.388  158.748  157.662  157.470  157.952  158.778  157.093  158.286  158.281  157.935  157.927  157.788  157.475  157.284  157.858  157.405  157.575  157.465  158.268  157.534  158.022  157.334  158.101  157.670  157.661  157.624  157.329  158.419  157.634  158.120  157.690  158.394  157.748  158.205  157.858  157.598  157.195  157.895  157.944  158.554  163.099  157.726  157.471  157.620  158.486  159.880  167.867  162.006  160.550  158.084  157.674  157.261  158.388  157.266  157.101  157.277  157.325  157.313  157.753  157.636  157.660  158.149  157.855  157.800  157.384  158.023  157.542  158.100  158.344  157.769  157.788  157.432  157.753  158.780  157.347  157.375  157.343  157.964  157.732  157.478  157.819  157.753  159.002  158.179  158.918  158.798  159.616  160.315  161.095  162.181  164.011  165.893  168.023  171.668  175.201  182.021  186.886  192.059  197.564  204.345  211.743  216.413  220.729  225.611  226.361  225.202  220.976  213.641  204.939  197.027  190.526  187.321  183.052  180.634  180.157  178.846  178.346  175.593  174.649  172.537  170.633  168.835  167.616  166.534  165.252  164.616  164.144  164.213  165.116  166.514  167.313  168.857  171.083  172.029  173.080  175.028  176.543  180.635  183.446  186.240  188.834  189.707  191.354  189.243  186.676  182.288  178.609  174.451  170.716  168.371  167.385  165.482  164.857  164.733  163.017  163.193  162.687  162.743  162.467  163.198  162.455  162.217  162.072  161.571  161.797  160.624  159.718  159.524  159.340  159.530  158.851  159.340  159.146  158.698  159.097  158.935  158.642  159.325  158.410  159.315  159.137  159.710  160.459  160.527  159.655  160.023  159.597  159.753  160.290  160.098  159.852 
DATE 2017:094:09:55:51 obsn  55 az  63 el 40 freq_MHz  1420.4000 Tsys 153.104 Tant 19.108 vlsr  -28.03 glat -0.057 glon 80.118 azoff 0.00 eloff 0.00 source G80.0 
Fstart 1419.397 fstop 1421.403 spacing 0.009375 bw    2.400 fbw    2.000 MHz nfreq 256 nsam 5242880 npoint 214 integ    10 sigma    0.504 bsw 0
Spectrum      9 integration periods
 163.295  162.418  161.439  161.411  161.446  160.352  161.641  161.053  161.624  161.344  161.065  161.354  160.995  161.735  160.689  160.514  160.771  160.480  159.835  160.866  161.029  160.799  160.064  160.453  161.296  160.407  161.770  159.945  160.219  160.813  160.346  161.197  161.214  161.005  160.948  160.491  160.795  159.912  160.462  160.353  159.923  161.333  161.179  161.273  160.447  160.628  160.591  161.334  161.403  162.004  161.101  161.767  161.347  161.168  162.383  161.199  160.960  160.840  159.634  161.047  160.234  160.795  161.194  163.493  160.815  161.898  160.918  160.373  160.905  162.148  168.711  166.822  161.186  161.558  161.565  162.021  160.827  160.467  162.163  161.066  160.064  160.896  160.651  161.825  162.178  161.953  161.046  161.589  161.546  161.825  161.147  161.602  162.652  161.485  161.399  161.528  161.523  161.395  161.763  161.737  161.413  161.216  160.908  161.317  161.121  160.857  161.696  161.339  161.818  162.493  161.627  161.728  162.512  164.413  165.787  167.448  171.434  175.374  182.017  190.002  200.305  209.464  217.485  225.897  229.919  233.227  235.520  235.247  232.266  231.176  228.981  222.996  216.554  206.700  200.914  194.014  189.342  187.465  185.230  185.219  184.739  184.305  183.319  184.727  185.056  182.941  182.086  181.947  181.594  180.561  179.976  178.060  176.786  175.419  176.347  177.710  177.805  178.753  180.369  183.533  186.201  186.759  189.820  190.100  192.099  192.538  190.977  189.939  188.093  186.849  183.260  180.557  177.162  174.674  171.424  170.547  168.979  167.760  167.968  166.738  165.841  165.754  166.007  166.335  165.351  166.056  163.724  164.153  164.169  164.039  164.348  163.905  163.324  163.465  163.101  162.463  162.082  162.399  161.862  163.429  163.449  163.583  162.801  162.303  162.947  166.875  166.762  163.762  163.550  164.027  162.908  163.556  163.260  163.621 
DATE 2017:094:09:56:04 obsn  56 az  63 el 40 freq_MHz  1420.4000 Tsys 153.104 Tant 19.008 vlsr  -28.03 glat -0.057 glon 80.118 azoff 0.00 eloff 0.00 source G80.0 
Fstart 1419.397 fstop 1421.403 spacing 0.009375 bw    2.400 fbw    2.000 MHz nfreq 256 nsam 5242880 npoint 214 integ    21 sigma    0.347 bsw 0
Spectrum     19 integration periods
 163.321  162.412  162.053  161.589  161.866  160.685  161.443  161.657  161.402  161.456  161.289  161.422  161.085  161.698  161.147  160.703  161.244  160.825  160.548  161.150  161.274  161.140  160.575  160.718  161.526  160.757  161.021  160.920  160.495  160.982  160.737  161.059  161.240  160.777  160.513  160.848  161.402  160.607  160.885  160.563  160.977  161.561  161.150  161.364  160.921  161.256  161.351  161.838  161.317  162.013  160.832  162.029  161.587  162.078  161.839  160.991  161.458  161.212  160.383  161.601  160.652  161.009  161.436  163.491  160.980  161.767  161.094  161.149  161.993  162.826  167.042  167.054  161.758  161.848  161.462  161.358  161.356  160.928  161.525  161.507  160.982  161.096  161.138  161.467  161.977  161.874  161.709  161.560  161.855  162.410  161.561  161.746  161.846  161.529  162.308  161.821  161.455  161.576  161.698  161.928  161.761  161.800  161.336  161.940  161.424  161.305  161.833  161.638  162.223  162.297  161.812  162.424  162.882  164.030  166.010  167.265  171.124  175.587  181.171  190.002  200.923  210.247  218.431  226.124  230.911  233.682  235.563  234.823  233.684  232.438  229.811  224.318  217.369  208.402  201.322  194.350  189.673  188.049  186.463  185.606  184.893  184.427  184.644  185.602  185.579  183.946  182.854  182.668  182.132  181.170  180.472  178.975  177.823  176.287  176.405  176.719  177.895  179.354  181.430  183.420  186.278  187.589  189.985  190.019  190.709  191.677  190.986  190.312  188.891  187.488  183.751  182.280  178.024  175.238  172.669  170.611  169.106  167.899  167.408  166.753  165.938  166.011  166.170  165.884  165.739  166.070  164.794  164.224  164.470  164.060  164.435  163.658  163.492  163.273  163.016  162.842  162.754  162.817  162.594  163.589  163.476  162.971  163.021  162.834  163.094  166.812  166.297  164.139  164.163  163.621  163.711  164.109  163.498  163.827 
DATE 2017:094:09:56:31 obsn  57 az  52 el 36 freq_MHz  1420.4000 Tsys 153.104 Tant 14.722 vlsr  -21.58 glat -0.022 glon 90.118 azoff 0.00 eloff 0.00 source G90.0 
Fstart 1419.397 fstop 1421.403 spacing 0.009375 bw    2.400 fbw    2.000 MHz nfreq 256 nsam 5242880 npoint 214 integ     3 sigma    0.874 bsw 0
Spectrum      3 integration periods
 160.657  160.391  157.983  161.605  160.633  158.385  158.751  159.238  160.128  159.449  160.747  159.005  159.471  158.733  158.478  159.105  159.445  157.038  159.992  158.012  159.483  159.796  159.953  158.223  161.029  160.547  159.917  159.704  159.126  158.255  159.561  158.099  158.666  159.261  157.161  158.478  159.089  160.613  160.024  159.737  159.177  161.562  159.631  158.530  158.524  159.890  160.652  160.331  159.688  159.833  158.614  158.528  160.966  161.733  161.212  160.605  160.056  159.469  159.435  160.056  159.219  159.714  159.995  160.336  158.757  160.257  158.599  157.445  160.007  163.292  168.587  166.381  161.534  159.707  158.927  159.430  159.142  159.757  158.566  159.098  159.729  158.381  160.446  159.587  159.074  160.046  159.258  159.483  158.156  160.252  158.857  159.691  158.827  160.941  160.052  160.221  159.757  158.763  157.827  158.298  158.142  158.802  161.722  160.877  159.382  158.181  159.117  159.930  158.567  159.321  159.479  160.543  161.383  162.160  163.527  165.424  168.225  171.315  178.998  187.406  196.660  206.981  213.001  216.336  219.384  219.265  217.604  219.084  220.034  216.978  214.969  210.949  205.180  203.618  198.017  193.102  184.990  184.335  182.481  181.498  181.082  180.906  181.500  182.617  184.961  184.981  185.659  187.364  185.791  186.114  184.115  181.728  181.695  178.893  177.977  178.291  176.700  180.827  180.391  180.025  186.024  188.683  187.177  189.938  189.737  188.787  186.008  182.356  184.355  180.897  181.047  178.036  175.310  172.479  171.378  168.478  168.238  166.909  165.103  166.440  165.547  165.033  163.578  164.222  162.969  161.161  162.720  158.783  160.384  163.005  161.593  160.667  162.518  161.843  160.516  161.732  161.037  162.602  161.619  159.665  158.955  159.012  160.421  160.204  160.224  162.581  162.705  160.974  161.367  161.585  162.327  162.491  161.545  160.820 
DATE 2017:094:09:56:44 obsn  58 az  52 el 36 freq_MHz  1420.4000 Tsys 153.104 Tant 14.471 vlsr  -21.58 glat -0.022 glon 90.118 azoff 0.00 eloff 0.00 source G90.0 
Fstart 1419.397 fstop 1421.403 spacing 0.009375 bw    2.400 fbw    2.000 MHz nfreq 256 nsam 5242880 npoint 214 integ    14 sigma    0.420 bsw 0
Spectrum     13 integration periods
 159.936  159.589  159.304  159.981  158.905  159.243  158.042  159.146  158.461  158.618  158.633  157.706  157.947  157.873  158.213  158.658  158.434  158.287  159.152  158.489  158.538  159.045  158.887  158.879  159.844  159.065  159.222  158.756  158.245  157.618  159.186  159.059  158.565  158.305  158.127  158.130  158.856  157.951  158.389  158.277  158.035  158.761  158.721  158.306  158.746  158.810  158.891  158.630  158.820  158.907  158.562  158.598  158.934  159.339  159.278  159.435  158.931  158.802  158.141  158.848  157.917  158.628  158.835  159.135  158.439  158.475  157.765  158.236  158.936  165.361  164.816  166.040  158.854  159.260  158.526  157.889  158.436  158.715  158.062  158.052  158.659  158.284  158.525  158.594  158.199  158.970  158.757  158.537  158.396  159.677  158.619  158.676  158.367  159.010  158.051  158.715  158.586  158.309  157.299  157.638  158.100  158.177  158.739  159.099  158.526  157.567  158.474  158.290  158.124  159.066  159.215  160.237  159.958  160.328  161.907  162.654  166.148  169.985  176.381  185.049  196.140  204.564  210.000  212.765  213.799  212.455  210.746  210.815  210.495  209.818  206.581  205.078  201.454  198.444  194.180  190.548  185.237  182.106  179.645  178.780  177.373  178.301  178.509  179.939  182.556  185.652  187.725  188.389  188.161  186.594  185.148  183.772  182.785  180.249  179.037  179.753  177.404  178.685  179.785  181.330  184.851  187.135  187.462  189.696  188.218  187.332  185.408  182.088  180.644  178.255  177.584  175.496  174.385  172.341  170.690  169.161  167.218  166.136  164.890  165.008  164.580  163.334  163.201  162.409  163.130  161.549  160.274  159.456  160.258  160.237  160.878  160.578  160.829  160.102  160.415  159.940  159.856  159.578  160.303  159.416  159.570  159.419  159.297  159.521  159.550  161.952  161.895  160.322  160.234  160.617  161.173  160.988  160.680  160.161 
DATE 2017:094:09:56:57 obsn  59 az  52 el 36 freq_MHz  1420.4000 Tsys 153.104 Tant 14.153 vlsr  -21.58 glat -0.022 glon 90.118 azoff 0.00 eloff 0.00 source G90.0 
Fstart 1419.397 fstop 1421.403 spacing 0.009375 bw    2.400 fbw    2.000 MHz nfreq 256 nsam 5242880 npoint 214 integ    25 sigma    0.315 bsw 0
Spectrum     23 integration periods
 160.279  159.652  159.305  159.512  158.785  159.097  158.301  158.536  158.343  158.657  158.782  157.894  157.989  158.047  158.648  158.462  158.596  158.458  158.951  158.046  158.798  158.719  158.858  158.554  159.007  159.213  158.879  158.360  158.260  157.720  158.631  158.537  158.388  158.117  157.679  158.045  158.688  157.913  158.208  158.028  157.857  159.133  158.576  158.008  158.652  158.442  158.518  158.487  158.577  158.567  158.772  158.656  158.691  158.985  158.638  159.428  159.192  158.979  158.413  158.139  157.902  158.476  158.477  159.389  158.514  158.661  157.789  158.491  158.898  165.195  162.168  165.488  158.710  159.188  158.480  157.792  158.468  158.660  157.921  158.443  157.878  158.073  158.384  158.243  157.798  158.913  158.427  158.131  158.294  159.560  158.618  158.544  158.777  158.730  157.972  158.439  158.853  158.438  157.371  157.986  157.961  158.007  158.446  158.281  158.013  157.913  158.436  157.937  158.287  158.763  159.083  160.059  159.910  160.282  161.735  162.697  166.061  169.599  175.892  184.884  196.105  204.086  209.538  212.486  212.575  211.600  209.864  209.262  208.962  208.255  206.121  204.186  200.885  197.470  193.650  189.586  184.861  181.840  179.434  178.351  176.903  177.551  178.316  179.798  182.445  185.847  188.073  188.257  188.160  186.609  185.586  183.887  182.806  180.565  179.229  179.337  177.832  178.307  179.848  181.429  184.868  186.747  187.685  189.188  188.597  187.182  184.631  181.753  180.156  178.185  177.247  175.425  174.132  172.153  170.477  168.449  166.913  165.646  164.857  164.304  164.280  163.255  163.017  162.365  162.515  161.089  160.320  160.691  160.437  160.055  160.772  160.200  160.222  160.030  160.225  159.984  159.312  159.360  159.944  159.301  159.368  159.534  159.175  159.779  159.654  161.608  161.294  160.247  160.013  159.913  160.511  160.573  160.529  159.881 
