DATE 2017:067:02:43:08 obsn 679 az  90 el  0 freq_MHz  1422.8800 Tsys 231.636 Tant 372.406 vlsr  -21.53 glat 62.191 glon 316.963 source at_stow
Fstart 1421.877 fstop 1423.883 spacing 0.009375 bw    2.400 fbw    2.000 MHz nfreq 256 nsam 5242880 npoint 214 integ    36 sigma    0.398 bsw 0
Spectrum     33 integration periods
 480.744  484.319  488.228  486.210  489.490  488.644  488.386  487.120  488.826  485.164  484.135  489.445  486.880  484.460  488.043  486.669  490.416  499.739  488.676  494.830  492.155  490.374  495.737  497.605  495.709  492.923  493.495  495.800  496.944  493.573  501.288  491.544  496.378  492.212  490.065  494.026  495.602  493.143  494.494  495.555  493.853  493.164  493.606  496.099  493.198  505.659  498.315  492.387  494.421  495.810  493.359  495.667  495.192  492.495  495.595  494.380  494.847  494.172  500.208  496.770  495.514  504.619  499.181  499.582  498.623  500.887  498.800  499.526  498.950  498.387  501.438  499.487  498.596  497.845  499.580  502.142  497.865  496.078  495.677  502.871  501.312  498.420  497.523  499.510  495.326  497.680  496.742  496.711  497.487  499.158  499.285  500.517  503.712  499.635  500.400  552.071  500.528  499.229  500.994  501.937  502.157  502.472  503.155  504.910  503.388  507.069  505.029  504.809  503.361  504.692  504.353  504.168  504.860  504.321  506.377  502.366  505.447  510.812  507.695  502.203  502.702  505.228  511.153  511.047  505.935  501.306  506.726  502.912  502.835  501.968  505.205  503.651  514.024  504.416  504.669  505.825  506.970  507.411  511.085  508.212  509.619  512.569  509.948  510.913  509.348  511.089  511.728  512.677  511.123  509.351  508.152  508.686  510.481  506.176  508.171  518.140  513.745  508.103  508.635  507.303  507.353  508.893  506.818  509.218  519.107  512.037  507.077  509.693  510.265  509.893  510.022  511.159  510.687  514.349  508.923  510.089  512.152  510.665  510.781  512.360  512.322  513.573  511.830  513.749  513.663  515.034  518.049  514.091  515.581  512.665  512.482  511.797  509.908  510.393  511.403  511.769  510.199  510.993  510.313  511.504  513.200  513.285  512.706  512.397  512.325  511.781  511.685  512.216  511.525  511.512  512.057  515.675  513.078  512.472 
DATE 2017:067:02:46:11 obsn 680 az 331 el 25 freq_MHz  1422.8800 Tsys 231.636 Tant 30.866 vlsr    7.09 glat  0.083 glon 120.117 source G120.0 
Fstart 1421.877 fstop 1423.883 spacing 0.009375 bw    2.400 fbw    2.000 MHz nfreq 256 nsam 5242880 npoint 214 integ    11 sigma    0.724 bsw 0
Spectrum     10 integration periods
 290.601  293.789  293.283  291.692  293.037  294.945  295.021  292.134  293.451  292.561  292.402  293.582  293.693  293.686  293.718  292.768  292.660  295.888  295.408  294.743  293.303  295.625  296.040  295.291  295.332  295.959  294.014  297.219  297.661  294.783  297.358  294.813  294.810  294.425  293.851  296.604  294.230  294.006  295.818  296.323  295.592  293.549  296.714  294.261  295.154  299.264  294.878  295.394  295.110  294.159  295.048  295.047  294.230  295.733  294.375  293.883  296.055  293.627  296.928  295.185  296.864  296.195  296.134  296.126  294.748  296.003  295.295  296.029  293.520  294.761  296.863  294.862  297.129  295.036  295.594  295.986  295.993  296.008  294.780  296.480  295.450  293.942  295.343  294.773  293.307  296.035  291.748  295.254  295.141  295.524  293.685  295.394  296.460  295.122  295.772  303.790  296.230  296.755  296.593  296.538  296.633  296.872  296.295  296.716  297.802  296.696  298.103  295.949  295.301  297.388  296.022  296.563  295.798  296.012  296.354  297.372  299.085  298.341  297.423  296.498  295.852  295.817  298.557  299.736  296.511  297.184  296.547  295.457  296.856  295.926  297.095  295.589  297.255  295.503  296.410  296.343  296.858  296.837  298.615  296.646  297.695  295.086  296.136  296.671  298.099  296.038  297.780  298.216  296.958  295.463  296.797  297.007  296.712  294.555  297.638  297.086  297.266  294.736  296.989  294.981  296.805  297.220  297.373  295.413  298.231  295.631  297.443  296.911  297.335  295.340  296.864  295.754  296.992  296.959  295.212  296.417  295.192  296.069  297.704  297.672  296.396  296.473  296.531  297.837  296.471  298.022  297.153  297.178  297.371  296.678  294.836  296.911  296.874  295.301  295.766  295.679  295.934  296.556  295.588  297.880  295.067  296.542  296.150  295.281  296.856  295.976  295.807  296.639  296.398  294.901  295.878  296.829  297.544  294.934 
DATE 2017:067:02:46:48 obsn 681 az 328 el 30 freq_MHz  1422.8800 Tsys 231.636 Tant 32.584 vlsr   10.69 glat  0.099 glon 125.117 source G125.0 
Fstart 1421.877 fstop 1423.883 spacing 0.009375 bw    2.400 fbw    2.000 MHz nfreq 256 nsam 5242880 npoint 214 integ     1 sigma    2.289 bsw 0
Spectrum      1 integration periods
 261.101  257.600  259.603  259.603  266.143  260.843  263.386  259.102  263.700  267.584  262.621  262.867  259.962  257.368  263.604  262.211  261.434  262.128  261.881  260.839  256.888  261.909  259.175  264.077  261.142  262.787  260.660  262.764  259.277  257.021  264.443  261.723  264.419  258.187  263.916  265.116  259.144  261.980  262.528  259.661  264.131  262.659  259.875  261.944  258.725  262.573  259.055  264.730  262.942  259.303  263.095  263.094  265.579  266.933  263.417  267.423  264.977  260.167  266.813  263.469  266.592  263.995  261.838  264.995  264.526  264.709  262.029  262.916  262.119  262.056  266.537  261.970  261.289  259.828  258.583  260.779  261.642  259.935  264.940  266.436  258.455  263.575  262.612  264.991  264.572  263.609  260.617  268.022  263.667  268.593  262.736  258.678  260.967  265.458  264.731  260.332  264.026  263.772  266.130  266.016  263.964  261.970  264.570  268.224  264.683  261.830  263.674  261.735  264.171  264.217  261.403  265.648  265.818  262.155  263.279  264.097  266.067  264.180  261.199  264.162  266.346  266.344  263.851  266.827  263.790  267.504  263.618  262.501  265.843  265.718  262.861  262.010  265.494  261.080  264.780  261.190  264.605  262.103  264.242  267.616  268.997  261.699  266.786  270.827  263.700  264.862  264.734  268.162  267.634  266.219  266.200  265.867  264.843  264.384  264.968  265.803  268.640  260.768  259.046  264.791  265.928  267.628  258.555  264.343  268.736  262.760  263.305  269.581  264.053  264.643  266.461  264.452  263.692  265.292  267.639  261.290  264.561  262.786  264.166  259.324  266.061  263.144  269.778  263.160  267.892  266.176  267.704  269.989  266.599  263.539  264.506  264.423  264.362  267.212  264.915  265.251  269.266  264.646  265.575  264.089  268.045  261.760  262.285  264.875  263.805  266.478  260.163  267.967  263.822  266.719  264.297  262.671  265.312  264.884 
DATE 2017:067:02:47:09 obsn 682 az 327 el 32 freq_MHz  1422.8800 Tsys 231.636 Tant 32.897 vlsr   12.46 glat  0.107 glon 127.617 source G127.5 
Fstart 1421.877 fstop 1423.883 spacing 0.009375 bw    2.400 fbw    2.000 MHz nfreq 256 nsam 5242880 npoint 214 integ     2 sigma    1.619 bsw 0
Spectrum      2 integration periods
 260.231  260.838  261.269  260.496  265.280  262.608  264.287  264.617  261.886  258.659  260.094  259.737  261.059  259.300  263.259  260.801  260.044  260.117  259.130  259.707  256.893  264.327  261.726  263.519  260.893  264.419  262.824  264.343  264.752  262.073  261.594  262.072  261.936  262.981  262.420  262.005  264.356  260.275  261.371  260.925  261.799  262.599  258.577  262.484  265.444  266.321  266.189  264.840  262.552  259.891  263.467  265.325  259.515  260.837  263.050  261.391  263.892  260.060  263.087  261.016  264.702  259.947  263.648  261.152  265.214  263.602  262.674  260.886  263.171  262.756  266.755  263.206  264.658  266.328  262.601  267.171  263.018  263.828  263.202  261.521  263.773  266.591  267.748  262.390  264.247  263.448  265.688  260.962  264.898  262.224  264.444  264.373  265.840  261.051  265.763  263.320  266.553  265.266  265.889  268.071  266.929  265.776  266.236  263.666  264.255  262.715  266.081  268.782  266.870  266.577  264.252  263.357  263.517  263.854  262.254  265.323  267.715  264.044  264.496  263.980  266.227  263.674  264.352  263.287  265.667  266.319  266.502  265.020  266.801  264.911  265.072  263.775  261.355  263.142  264.535  264.750  262.473  267.893  265.026  262.733  267.452  260.166  264.874  266.996  264.462  264.607  268.154  266.011  262.046  264.468  262.982  267.879  263.667  264.384  264.823  262.489  269.043  265.582  263.703  266.283  265.758  265.666  264.156  266.138  264.635  266.137  264.409  268.046  264.461  266.575  264.110  266.514  264.857  266.324  267.201  264.566  263.184  262.983  267.270  264.926  269.004  264.097  263.813  265.255  265.971  267.689  266.889  265.336  267.153  268.647  266.319  263.674  265.022  264.229  267.377  266.919  266.047  267.632  265.923  268.100  266.150  264.632  264.486  264.281  267.443  264.426  265.306  268.680  268.465  266.325  264.312  266.041  267.287  269.073 
DATE 2017:067:02:47:30 obsn 683 az 326 el 34 freq_MHz  1422.8800 Tsys 231.636 Tant 33.478 vlsr   14.21 glat  0.114 glon 130.117 source G130.0 
Fstart 1421.877 fstop 1423.883 spacing 0.009375 bw    2.400 fbw    2.000 MHz nfreq 256 nsam 5242880 npoint 214 integ     2 sigma    1.619 bsw 0
Spectrum      2 integration periods
 261.416  265.436  260.757  262.991  263.044  262.033  262.346  260.378  263.629  265.275  260.868  262.855  265.946  260.594  264.155  264.768  261.739  261.736  263.422  260.755  264.171  262.046  260.793  263.707  262.274  261.351  263.816  263.552  261.669  264.686  260.358  260.734  263.062  263.784  263.938  263.281  264.220  262.450  263.490  262.489  261.565  264.267  263.996  263.021  261.559  264.100  262.370  261.953  263.228  262.538  262.190  264.039  263.674  263.576  262.736  267.656  264.990  265.304  264.374  262.372  260.766  263.653  265.927  263.947  262.860  257.110  263.305  265.636  263.562  266.512  259.752  261.593  260.724  260.492  260.545  263.322  261.445  263.951  268.328  261.258  263.431  262.412  265.917  262.701  263.625  265.456  267.699  263.644  266.287  263.042  265.172  265.446  260.629  261.781  262.607  273.524  266.078  264.320  263.509  262.756  263.862  263.483  265.882  263.457  267.414  265.538  264.049  265.784  261.782  266.633  266.039  264.731  267.792  263.784  265.724  270.474  266.743  265.269  267.322  264.028  265.270  263.708  267.595  265.372  263.024  263.221  264.324  263.583  261.198  265.476  262.653  265.807  263.653  266.022  266.394  263.670  265.145  264.983  264.964  268.267  263.240  266.987  264.890  269.148  264.145  263.299  267.903  266.148  268.263  266.492  266.346  265.663  265.884  263.589  265.130  266.642  266.436  266.536  266.557  262.220  263.185  264.626  266.891  269.273  266.841  269.249  264.717  263.462  267.011  265.567  264.197  263.877  265.370  264.392  264.070  264.856  267.095  266.157  267.898  264.174  263.013  267.794  264.710  266.437  269.274  267.998  265.542  265.825  264.611  266.067  268.022  264.973  269.021  265.500  267.753  266.011  268.404  265.975  266.309  266.805  265.579  267.791  265.856  264.207  267.385  268.352  267.897  266.558  266.081  268.095  264.730  263.995  264.616  266.322 
DATE 2017:067:02:47:52 obsn 684 az 325 el 36 freq_MHz  1422.8800 Tsys 231.636 Tant 29.329 vlsr   15.92 glat  0.122 glon 132.617 source G132.5 
Fstart 1421.877 fstop 1423.883 spacing 0.009375 bw    2.400 fbw    2.000 MHz nfreq 256 nsam 5242880 npoint 214 integ     3 sigma    1.322 bsw 0
Spectrum      3 integration periods
 258.197  259.815  258.671  260.066  260.489  260.923  260.808  260.253  261.384  262.119  258.969  261.960  260.691  259.171  261.028  257.055  261.001  260.736  260.250  261.468  260.682  262.461  260.680  262.318  258.033  261.921  258.317  259.512  260.931  258.809  257.683  257.997  259.592  262.191  258.208  258.615  259.613  261.371  259.439  259.580  260.301  258.448  261.852  259.444  258.220  259.967  259.814  261.861  259.822  259.786  259.278  258.803  259.787  260.762  260.620  259.390  258.502  258.267  262.182  260.874  259.447  260.893  259.650  261.283  260.623  260.272  259.595  260.929  258.464  258.338  259.248  260.143  258.916  259.348  260.057  258.636  259.311  262.408  259.641  259.905  259.202  258.311  261.451  261.126  261.255  259.388  263.892  260.057  260.054  258.827  260.598  260.701  262.168  258.107  261.705  267.227  263.097  262.389  259.894  260.733  258.934  261.239  259.982  260.820  259.128  260.371  261.691  264.830  261.430  263.723  262.491  264.696  261.043  261.954  262.142  263.031  266.168  264.541  263.021  260.555  259.435  262.447  264.136  262.265  264.400  261.685  260.992  262.782  263.809  262.267  262.331  261.827  261.174  261.023  263.395  263.241  262.284  260.632  262.427  260.546  262.238  261.894  262.710  261.188  262.432  262.513  261.627  262.799  261.193  261.999  260.744  263.160  265.281  262.490  261.435  263.942  263.776  263.613  263.442  261.597  262.377  263.139  262.747  260.618  262.202  261.638  262.275  263.165  261.944  260.833  261.214  262.602  262.764  261.996  260.230  262.497  261.935  260.079  262.575  263.769  260.275  262.163  261.183  263.804  262.765  261.437  260.001  263.182  262.036  262.115  263.676  262.895  260.695  262.982  262.424  262.422  261.852  262.264  260.195  261.513  260.894  261.907  262.127  265.968  261.687  259.384  261.929  264.438  263.152  264.984  262.947  262.703  262.297  263.874 
DATE 2017:067:02:48:13 obsn 685 az 323 el 39 freq_MHz  1422.8800 Tsys 231.636 Tant 29.952 vlsr   17.61 glat  0.129 glon 135.117 source G135.0 
Fstart 1421.877 fstop 1423.883 spacing 0.009375 bw    2.400 fbw    2.000 MHz nfreq 256 nsam 5242880 npoint 214 integ     3 sigma    1.322 bsw 0
Spectrum      3 integration periods
 256.276  254.921  261.629  258.695  261.293  261.094  257.805  259.795  259.170  261.214  259.456  262.630  258.124  258.911  259.125  261.260  258.174  256.488  259.518  259.600  260.467  260.392  261.337  258.851  260.686  261.303  260.995  263.099  260.326  260.165  261.178  261.000  258.822  261.835  260.385  259.732  257.636  259.199  260.592  259.811  260.815  257.857  261.542  259.990  257.722  259.934  259.641  260.234  261.148  259.739  258.918  259.600  260.542  258.524  260.997  259.318  263.316  258.141  258.754  259.555  259.416  259.937  258.918  259.205  259.466  258.377  261.943  258.772  261.999  258.625  261.799  259.404  258.944  258.259  261.131  259.568  260.662  259.732  260.738  260.323  261.111  260.482  261.383  259.540  260.344  257.883  259.424  260.692  262.149  260.337  261.030  257.506  260.045  258.691  258.581  259.144  258.935  259.853  258.524  260.478  261.593  257.842  260.675  261.037  261.216  257.941  261.513  259.753  262.209  260.433  260.285  262.364  258.278  260.091  262.117  263.788  263.068  262.434  260.678  262.793  262.408  261.817  263.577  264.305  262.124  261.954  262.176  259.807  261.444  261.409  262.565  259.572  261.204  259.824  263.223  261.414  261.464  261.924  261.415  263.690  259.437  262.277  261.221  262.635  264.009  260.837  261.499  259.011  263.198  261.226  261.323  261.370  260.983  262.107  262.538  262.243  258.733  264.924  261.573  258.991  260.986  263.812  263.269  263.736  259.378  261.582  260.621  262.465  260.814  260.369  262.292  263.084  261.562  260.207  261.675  261.939  263.882  260.824  262.742  265.386  262.237  267.300  262.338  264.210  263.392  264.378  262.426  263.482  262.001  262.086  265.969  261.676  264.325  259.587  264.227  262.542  261.914  261.538  261.618  262.291  262.241  261.583  264.891  260.581  262.939  260.988  260.285  260.596  261.144  260.477  262.506  261.825  262.980  262.794 
DATE 2017:067:02:48:34 obsn 686 az 322 el 41 freq_MHz  1422.8800 Tsys 231.636 Tant 30.441 vlsr   19.27 glat  0.136 glon 137.617 source G137.5 
Fstart 1421.877 fstop 1423.883 spacing 0.009375 bw    2.400 fbw    2.000 MHz nfreq 256 nsam 5242880 npoint 214 integ     4 sigma    1.145 bsw 0
Spectrum      4 integration periods
 257.169  259.044  261.505  260.105  259.692  260.508  259.668  259.528  262.219  259.922  258.412  259.980  259.223  259.856  259.115  258.448  260.884  259.354  262.984  261.826  260.528  260.636  262.345  263.539  261.641  258.806  263.837  259.802  261.473  261.115  260.841  261.527  264.039  260.557  260.378  261.551  261.943  263.694  259.782  260.756  261.343  263.323  259.979  259.342  259.110  260.667  260.777  260.027  261.307  260.864  259.302  259.938  261.989  260.472  259.410  259.778  259.026  258.618  259.478  262.287  260.877  263.336  261.935  258.074  260.202  261.613  261.926  262.253  261.512  261.952  259.489  261.919  259.695  261.060  261.253  263.879  261.579  262.084  263.392  263.007  261.833  261.035  261.055  261.851  260.259  260.720  261.668  260.727  260.163  260.973  262.172  260.892  261.601  262.387  262.205  262.271  262.656  263.419  261.390  265.373  262.182  262.666  262.529  262.415  261.379  261.058  260.461  260.876  261.074  260.654  261.217  260.371  263.370  260.938  261.867  260.222  261.439  261.310  262.789  259.254  262.222  263.436  262.342  262.002  263.063  261.176  263.143  261.670  259.329  262.199  260.641  264.132  263.775  262.722  263.204  263.530  262.779  262.044  262.979  262.611  262.531  264.289  261.754  261.815  261.129  261.670  262.601  262.772  263.538  263.324  262.368  259.984  262.213  263.989  263.756  262.244  263.015  263.623  261.745  263.131  264.198  264.014  264.299  262.617  262.143  264.437  262.024  264.992  262.711  262.400  261.408  260.929  262.748  264.374  263.266  262.710  263.427  264.456  261.351  262.111  261.288  265.463  262.946  262.404  263.408  262.425  265.486  263.787  262.847  264.155  262.145  262.415  263.576  263.237  261.725  263.829  263.737  263.087  261.327  262.494  263.581  263.488  263.084  263.812  262.058  262.727  262.517  265.277  260.792  262.603  263.965  263.597  263.194  262.843 
DATE 2017:067:02:48:55 obsn 687 az 320 el 43 freq_MHz  1422.8800 Tsys 231.636 Tant 31.420 vlsr   20.89 glat  0.142 glon 140.117 source G140.0 
Fstart 1421.877 fstop 1423.883 spacing 0.009375 bw    2.400 fbw    2.000 MHz nfreq 256 nsam 5242880 npoint 214 integ     4 sigma    1.145 bsw 0
Spectrum      4 integration periods
 259.347  259.521  261.505  259.901  258.819  262.267  260.927  258.322  258.781  259.422  259.661  258.460  262.136  260.440  260.658  262.038  262.614  261.781  262.020  260.011  262.392  260.806  260.648  259.973  261.611  259.996  260.763  261.286  263.106  264.450  262.832  262.215  262.195  260.739  260.143  261.946  262.123  263.570  263.853  262.291  264.722  262.922  261.532  263.081  260.886  262.714  263.390  261.547  263.799  261.542  261.607  261.867  261.994  261.885  262.289  261.663  262.087  260.358  261.425  260.446  261.386  259.730  263.602  263.875  261.277  261.454  261.471  263.878  259.908  261.216  261.741  260.036  260.935  263.048  261.084  263.072  260.367  260.908  259.452  259.498  261.438  263.681  261.445  260.228  260.921  262.219  264.234  262.934  264.400  265.794  262.521  262.531  264.062  263.214  261.610  261.013  262.525  262.232  263.542  266.147  263.414  265.629  262.559  262.574  262.474  261.904  261.654  262.554  262.829  263.991  263.305  261.518  262.501  262.119  262.827  263.465  264.211  262.940  262.089  263.410  261.652  264.824  262.459  264.082  260.328  262.533  262.687  260.885  261.966  261.167  260.793  263.444  262.623  261.256  262.367  261.820  260.403  263.390  262.395  260.945  263.994  262.331  262.214  263.059  263.102  263.332  265.059  264.344  266.103  265.014  263.391  264.980  262.657  263.065  264.254  264.017  264.103  266.310  264.897  262.928  262.083  264.449  261.063  263.830  262.941  263.487  262.355  263.483  261.695  263.188  262.708  261.990  262.984  261.881  262.347  263.338  263.946  264.740  260.707  263.626  262.288  263.604  264.769  263.589  263.839  263.901  263.841  263.314  261.796  262.817  264.290  261.459  264.678  264.927  263.365  263.228  262.806  263.877  265.421  263.503  263.746  264.060  263.505  266.249  264.316  265.210  265.086  265.000  264.718  263.866  264.820  263.796  263.022  264.527 
DATE 2017:067:02:49:16 obsn 688 az 318 el 45 freq_MHz  1422.8800 Tsys 231.636 Tant 33.226 vlsr   22.47 glat  0.149 glon 142.617 source G142.5 
Fstart 1421.877 fstop 1423.883 spacing 0.009375 bw    2.400 fbw    2.000 MHz nfreq 256 nsam 5242880 npoint 214 integ     5 sigma    1.024 bsw 0
Spectrum      5 integration periods
 262.082  264.443  265.396  264.368  264.237  261.992  262.388  264.276  263.546  261.447  262.402  264.540  263.487  262.203  261.046  262.993  263.606  264.168  263.098  263.218  262.341  264.102  262.389  264.651  265.774  262.196  263.355  262.655  265.247  265.322  262.809  263.089  265.900  264.603  262.520  264.285  261.468  265.864  263.937  262.764  265.091  264.406  264.446  266.039  266.157  265.501  264.435  262.851  264.439  264.791  264.524  264.824  267.090  265.391  264.722  264.285  263.305  264.736  263.064  264.677  264.915  264.522  263.183  262.472  263.914  264.080  265.135  266.912  267.301  264.016  264.513  264.552  264.952  266.217  265.950  263.183  264.557  262.459  264.376  263.275  264.788  263.490  265.128  264.034  265.674  263.485  263.928  264.677  263.431  265.394  263.726  263.605  264.517  262.678  265.020  269.866  265.752  267.289  265.318  265.078  264.596  265.961  264.319  266.789  268.867  269.676  269.073  265.990  267.357  265.809  266.476  267.676  266.233  266.794  268.179  265.169  267.255  264.195  266.369  266.729  264.953  267.171  267.542  267.272  267.175  265.299  265.733  264.803  266.148  266.490  264.796  263.866  266.145  263.466  266.243  263.408  264.643  264.839  264.437  265.546  265.214  265.602  265.042  265.604  267.098  263.212  265.114  266.883  265.702  264.657  268.173  266.995  267.537  267.220  265.600  265.481  268.482  267.375  266.944  267.432  269.464  267.167  267.052  266.080  266.546  265.651  266.205  265.672  265.144  264.865  264.532  264.817  265.782  265.098  265.654  264.982  267.336  266.475  263.800  267.503  267.953  266.604  265.892  266.732  266.378  267.603  266.127  266.227  267.608  266.006  264.328  265.296  265.230  265.555  264.081  265.267  263.088  264.605  265.873  264.268  262.767  266.478  265.308  266.326  266.563  264.512  263.614  265.292  265.924  267.135  265.163  265.602  267.036  265.256 
DATE 2017:067:02:49:37 obsn 689 az 316 el 47 freq_MHz  1422.8800 Tsys 231.636 Tant 36.100 vlsr   24.01 glat  0.155 glon 145.117 source G145.0 
Fstart 1421.877 fstop 1423.883 spacing 0.009375 bw    2.400 fbw    2.000 MHz nfreq 256 nsam 5242880 npoint 214 integ     5 sigma    1.024 bsw 0
Spectrum      5 integration periods
 261.549  262.618  264.573  262.083  262.617  264.040  263.824  260.470  261.556  262.852  261.878  261.156  263.409  263.312  261.784  264.609  262.271  265.064  263.968  265.947  265.108  265.720  266.759  263.806  266.794  264.538  264.028  266.072  265.554  264.639  264.120  265.654  264.346  265.268  264.661  263.551  265.179  263.839  263.017  263.613  263.684  262.569  262.939  261.835  264.048  263.834  266.064  264.182  265.560  265.670  264.367  265.679  265.119  262.845  265.895  266.514  265.854  265.357  264.007  266.583  267.208  266.100  264.937  264.604  267.850  265.276  264.377  264.915  265.257  266.209  267.185  265.583  264.968  264.899  265.057  265.496  263.580  265.538  267.269  266.476  264.155  265.695  265.270  266.261  266.825  265.195  264.319  263.252  265.019  263.220  265.683  265.255  266.021  264.893  263.435  269.267  266.327  265.847  265.574  265.116  265.817  266.645  266.639  266.928  267.465  267.298  265.609  265.850  265.428  266.191  264.588  265.727  266.274  266.859  266.539  267.894  265.205  267.617  266.450  267.988  267.322  267.726  266.882  266.634  264.948  266.084  270.598  267.981  266.549  267.428  268.055  266.588  268.048  265.286  266.720  265.141  266.466  265.244  267.191  268.542  265.195  265.889  267.484  265.099  266.303  264.641  265.796  265.198  266.346  267.328  265.828  266.208  267.523  265.315  267.713  268.085  268.780  268.880  267.745  263.677  266.534  266.585  267.786  268.216  267.082  266.046  268.218  269.168  266.878  266.479  267.318  267.700  267.005  266.727  268.781  267.823  269.055  269.013  268.727  268.246  270.970  272.965  269.664  271.715  269.147  271.146  269.617  268.598  269.410  269.484  269.627  269.500  269.760  268.120  268.003  265.992  266.700  266.803  267.634  266.011  267.049  266.638  266.966  265.062  266.335  265.897  267.255  265.474  268.334  267.156  266.198  268.389  265.544  267.228 
DATE 2017:067:02:49:58 obsn 690 az 314 el 49 freq_MHz  1422.8800 Tsys 231.636 Tant 32.983 vlsr   25.50 glat  0.161 glon 147.617 source G147.5 
Fstart 1421.877 fstop 1423.883 spacing 0.009375 bw    2.400 fbw    2.000 MHz nfreq 256 nsam 5242880 npoint 214 integ     7 sigma    0.935 bsw 0
Spectrum      6 integration periods
 258.691  261.615  262.991  262.518  263.986  262.549  262.556  263.999  260.502  262.219  262.117  260.028  261.194  260.022  261.669  262.307  264.465  263.397  261.434  265.217  264.270  263.546  263.582  262.885  264.641  263.748  264.285  265.626  265.203  265.006  265.014  262.964  264.317  264.558  264.042  263.133  264.972  262.986  265.209  263.931  263.665  263.631  265.302  264.084  264.426  265.958  265.387  264.432  263.057  263.079  264.205  264.970  262.481  263.221  262.786  264.407  263.216  264.014  263.202  260.711  264.066  264.853  265.322  262.792  265.870  264.723  263.941  263.424  264.010  262.616  264.266  265.226  264.770  265.054  265.535  265.720  262.688  264.291  265.322  263.661  264.316  264.922  264.764  264.043  265.157  263.618  264.626  263.291  262.974  264.542  263.262  263.298  264.113  263.024  265.194  264.178  264.956  264.464  263.740  262.877  264.832  264.101  264.782  266.353  264.941  263.890  264.096  264.091  265.694  264.853  264.256  264.208  266.416  266.222  266.326  265.145  265.612  264.339  264.895  265.989  264.782  263.799  265.707  266.875  265.051  265.471  265.164  265.746  264.425  266.290  265.649  265.056  267.316  268.018  266.221  265.137  263.923  264.694  264.733  265.489  266.240  263.085  265.705  263.669  266.444  265.179  266.524  266.865  265.617  264.984  265.941  266.815  264.149  265.104  265.045  265.024  266.158  264.396  265.194  267.707  266.008  264.615  263.899  265.459  265.396  263.834  264.638  264.194  266.791  265.169  264.112  265.619  266.034  263.977  263.669  265.518  266.081  265.267  265.983  265.150  265.748  266.378  267.097  267.227  266.441  266.042  268.326  267.350  268.328  266.079  265.384  268.068  265.848  268.375  267.555  267.976  267.084  265.666  266.491  268.673  267.267  265.338  265.898  265.694  266.257  266.004  266.635  266.482  264.640  266.724  263.661  264.252  265.795  264.309 
DATE 2017:067:02:50:20 obsn 691 az 312 el 51 freq_MHz  1422.8800 Tsys 231.636 Tant 34.690 vlsr   26.94 glat  0.166 glon 150.117 source G150.0 
Fstart 1421.877 fstop 1423.883 spacing 0.009375 bw    2.400 fbw    2.000 MHz nfreq 256 nsam 5242880 npoint 214 integ     7 sigma    0.935 bsw 0
Spectrum      6 integration periods
 261.288  264.153  263.508  262.517  263.161  262.815  265.245  264.497  262.992  263.395  263.213  263.323  262.726  262.920  264.187  261.817  264.334  261.441  261.898  262.282  262.555  264.212  265.259  264.571  263.755  263.156  265.285  264.239  263.722  264.144  262.182  266.163  267.616  264.060  266.029  266.048  263.457  264.824  265.957  264.812  264.525  263.623  265.402  265.489  263.493  263.105  264.485  264.020  264.034  262.655  261.906  264.940  263.780  266.262  265.377  263.825  265.139  264.686  263.998  262.932  264.892  264.551  265.634  264.682  263.650  263.785  262.337  265.067  262.441  263.926  264.033  262.934  263.299  264.039  265.010  264.434  262.393  261.355  264.208  262.368  264.159  263.878  264.910  263.116  264.440  265.074  265.479  264.420  265.089  263.422  266.177  265.654  263.310  265.111  263.643  265.505  263.031  265.410  264.968  264.600  266.140  266.894  265.726  265.948  264.536  264.940  265.293  265.017  264.970  267.559  264.593  264.020  265.965  265.271  266.577  266.930  265.030  266.418  264.641  266.152  263.497  265.641  264.328  266.433  266.971  266.999  263.912  265.755  264.731  265.854  264.695  265.020  268.227  266.935  265.066  266.054  265.636  264.257  264.938  264.588  266.761  265.500  266.502  264.986  266.901  265.291  266.317  263.950  264.609  266.346  266.329  266.368  263.658  264.984  266.257  264.802  266.210  266.498  265.675  264.546  262.509  264.768  268.937  266.946  267.372  264.155  265.380  265.989  265.178  265.157  264.509  265.131  267.237  266.452  266.945  265.623  265.990  266.039  267.399  265.970  266.471  266.738  268.383  266.374  266.125  267.125  265.622  265.607  267.360  265.435  267.185  266.590  267.002  267.663  264.819  267.006  266.780  265.413  266.950  264.259  265.476  267.390  264.985  265.771  266.594  265.266  265.540  266.092  266.570  267.135  267.373  265.348  266.290  265.767 
DATE 2017:067:02:50:41 obsn 692 az 310 el 53 freq_MHz  1422.8800 Tsys 231.636 Tant 36.046 vlsr   28.33 glat  0.171 glon 152.617 source G152.5 
Fstart 1421.877 fstop 1423.883 spacing 0.009375 bw    2.400 fbw    2.000 MHz nfreq 256 nsam 5242880 npoint 214 integ     8 sigma    0.865 bsw 0
Spectrum      7 integration periods
 261.409  265.654  265.691  265.083  266.163  268.173  265.790  264.350  265.102  267.190  266.052  266.501  265.485  266.059  266.238  267.906  264.988  265.346  264.740  266.600  267.313  266.272  266.846  265.690  266.187  267.309  267.477  265.536  264.809  267.613  266.117  268.618  266.474  266.317  265.183  267.412  265.980  268.133  268.803  265.824  268.140  267.743  267.176  265.271  265.284  265.796  265.848  267.291  267.434  266.999  266.435  264.968  267.859  265.449  265.279  264.754  266.462  265.624  267.751  265.749  267.243  267.246  267.550  264.746  267.588  265.743  267.564  267.612  266.104  265.672  266.500  265.975  266.581  264.773  265.467  266.313  266.796  264.154  265.083  265.979  266.051  266.675  266.608  266.182  266.357  266.648  267.776  265.458  268.494  267.312  264.555  267.657  266.187  268.070  266.838  266.524  268.109  267.054  265.536  268.377  267.528  268.718  269.210  268.226  270.113  268.479  267.295  266.289  267.041  268.137  266.539  267.451  268.826  268.980  268.418  267.186  268.186  269.887  267.455  267.948  267.016  268.666  268.004  268.783  268.384  267.403  270.539  266.180  266.664  268.279  267.924  266.048  268.023  268.449  266.704  266.417  266.382  267.997  267.991  268.670  267.105  268.841  267.562  269.484  269.299  267.216  268.247  269.490  267.443  267.106  269.053  268.187  268.871  269.513  268.531  269.884  270.455  268.703  268.281  268.367  268.752  268.758  266.412  268.142  269.217  267.089  267.688  267.460  268.900  266.973  268.152  266.813  269.069  268.142  269.714  269.681  268.400  268.111  268.386  266.172  269.319  270.189  267.226  269.959  266.846  269.446  267.914  268.922  269.628  269.150  268.239  270.093  267.835  267.559  269.602  266.806  267.022  269.168  270.177  267.122  268.283  268.416  269.541  268.787  268.897  268.310  267.716  268.276  267.879  268.629  268.423  267.335  269.668  269.444 
DATE 2017:067:02:51:02 obsn 693 az 307 el 55 freq_MHz  1422.8800 Tsys 231.636 Tant 37.000 vlsr   29.67 glat  0.176 glon 155.117 source G155.0 
Fstart 1421.877 fstop 1423.883 spacing 0.009375 bw    2.400 fbw    2.000 MHz nfreq 256 nsam 5242880 npoint 214 integ     8 sigma    0.865 bsw 0
Spectrum      7 integration periods
 263.233  265.530  267.165  265.070  265.456  266.189  264.241  264.216  264.812  266.422  264.423  266.631  263.755  266.093  265.709  264.746  264.265  266.231  265.664  267.828  264.574  264.068  263.259  265.765  267.272  265.673  265.191  266.847  266.632  266.198  266.023  266.517  266.067  266.404  267.154  266.084  266.131  264.583  266.882  266.424  266.598  267.859  267.483  266.906  266.753  265.958  267.064  266.226  267.052  268.407  265.935  266.079  267.375  267.528  266.150  268.134  265.821  267.460  267.862  266.060  266.830  266.400  267.956  267.802  266.968  267.249  268.184  267.075  267.719  266.386  267.403  266.797  266.233  266.417  266.935  265.932  265.756  265.818  265.708  268.800  265.290  264.764  265.876  266.857  264.615  266.187  266.434  266.712  266.685  267.319  269.026  267.149  268.530  268.464  266.613  271.259  268.144  268.419  266.842  267.969  269.001  267.354  268.883  269.435  268.252  268.373  268.296  267.240  269.248  270.305  269.902  267.720  269.583  268.666  268.560  266.192  268.447  269.374  268.197  267.500  266.779  267.243  269.676  269.236  267.068  267.964  268.350  269.505  267.171  268.357  269.981  269.882  273.326  268.163  268.280  267.196  267.061  268.283  268.392  268.004  269.313  268.675  269.084  269.242  268.461  269.556  268.304  268.504  268.905  269.244  269.910  268.713  271.834  269.507  270.658  271.892  271.732  268.908  268.974  267.844  270.337  270.233  269.230  268.726  269.055  269.110  269.813  268.842  268.398  269.188  270.940  268.272  269.713  270.190  270.023  270.722  270.322  270.885  270.363  269.842  270.552  269.931  268.369  271.194  269.192  269.903  270.043  270.016  270.693  270.538  268.600  270.281  271.116  270.137  270.955  269.461  271.576  269.288  269.235  268.661  269.043  269.454  270.841  269.315  270.121  270.050  269.725  271.140  269.430  268.003  267.723  269.984  270.228  269.533 
DATE 2017:067:02:51:23 obsn 694 az 304 el 57 freq_MHz  1422.8800 Tsys 231.636 Tant 39.888 vlsr   30.95 glat  0.180 glon 157.617 source G157.5 
Fstart 1421.877 fstop 1423.883 spacing 0.009375 bw    2.400 fbw    2.000 MHz nfreq 256 nsam 5242880 npoint 214 integ     9 sigma    0.809 bsw 0
Spectrum      8 integration periods
 264.729  266.423  270.919  268.761  267.198  268.904  267.854  267.089  266.754  270.152  268.834  269.620  266.636  266.635  267.509  268.129  268.747  269.933  268.424  271.093  269.526  267.674  267.124  269.337  269.587  267.783  268.613  267.195  270.723  268.560  268.748  270.136  269.731  267.134  266.837  269.017  270.425  269.461  268.387  267.373  268.612  269.519  268.457  269.302  268.500  268.415  270.211  269.139  268.709  269.602  267.642  267.157  267.287  267.875  269.769  267.936  268.047  268.429  272.164  268.269  269.098  269.621  271.576  270.669  268.535  269.245  268.728  270.037  270.023  269.218  271.326  271.107  270.250  269.917  269.553  268.037  268.649  268.925  270.605  271.899  269.009  269.989  270.518  269.695  268.443  270.719  269.216  270.639  268.408  268.848  270.476  268.493  269.336  269.746  268.594  272.704  269.005  269.888  268.865  270.584  272.364  270.028  270.300  271.817  272.278  272.499  271.547  269.818  271.354  271.612  270.772  272.380  272.239  270.187  271.418  271.376  271.275  272.709  270.739  270.791  270.949  271.467  268.486  270.698  270.238  270.953  274.235  270.238  271.036  271.304  272.156  271.401  277.761  272.020  272.863  270.230  268.952  271.623  273.325  271.861  271.597  272.452  271.170  269.047  271.224  270.390  271.790  274.166  272.231  270.327  271.572  271.462  270.103  272.146  272.539  271.840  272.721  270.488  272.356  270.644  271.588  270.483  271.413  271.405  273.911  271.332  271.723  271.217  269.849  271.772  271.931  271.784  271.757  271.509  272.298  273.080  271.717  273.305  272.264  272.686  271.156  274.766  273.306  274.050  274.591  274.425  273.376  271.999  271.433  271.710  272.469  273.027  272.573  272.929  273.638  273.291  271.751  271.993  272.667  271.746  272.618  270.581  272.079  271.321  271.009  269.754  270.355  270.733  270.540  272.149  271.564  273.368  271.872  272.850 
DATE 2017:067:02:51:44 obsn 695 az 301 el 59 freq_MHz  1422.8800 Tsys 231.636 Tant 39.557 vlsr   32.17 glat  0.185 glon 160.117 source G160.0 
Fstart 1421.877 fstop 1423.883 spacing 0.009375 bw    2.400 fbw    2.000 MHz nfreq 256 nsam 5242880 npoint 214 integ     9 sigma    0.809 bsw 0
Spectrum      8 integration periods
 266.703  268.858  269.559  268.534  267.744  270.698  269.903  270.182  269.878  269.398  266.064  268.114  269.151  267.983  268.126  269.030  268.256  269.990  267.644  269.425  267.132  269.150  269.396  271.266  269.838  270.787  268.642  270.140  271.065  270.999  271.078  269.766  271.411  268.059  269.766  270.347  270.736  271.425  269.418  270.518  272.310  269.241  270.720  271.046  270.921  271.065  271.544  270.662  269.829  270.889  270.478  271.035  270.821  269.876  270.068  271.094  270.488  268.956  270.628  269.322  271.327  270.254  270.371  270.232  270.686  269.968  270.708  270.238  271.431  269.621  271.096  269.804  271.591  270.226  271.203  271.786  270.394  271.818  270.890  272.448  270.391  270.881  269.494  270.867  268.279  269.096  269.537  271.605  271.171  270.883  271.801  269.682  270.386  269.273  271.042  270.959  269.881  269.840  270.724  270.479  270.295  270.485  270.249  270.071  270.468  270.927  269.980  270.726  270.678  272.449  270.813  272.642  272.618  270.131  271.995  269.786  271.817  271.736  270.707  271.649  270.735  270.008  271.424  271.139  271.094  272.626  272.283  269.828  270.002  271.353  271.146  269.817  278.374  270.911  269.981  269.440  271.145  270.549  271.416  270.205  270.646  272.423  273.180  271.355  271.919  272.078  272.805  273.859  272.678  271.580  271.400  271.425  272.218  271.388  270.957  272.731  273.005  272.137  273.064  272.603  272.816  272.499  272.466  273.022  272.465  272.855  271.854  270.999  273.312  270.006  270.950  272.755  271.115  272.082  271.878  272.144  272.875  272.648  273.021  272.760  272.590  272.060  273.220  273.184  272.212  272.758  272.171  272.356  272.939  274.230  273.172  274.216  272.659  271.319  271.206  272.418  274.232  273.487  273.274  272.878  272.041  273.921  272.154  272.183  273.555  273.597  271.486  271.077  272.912  272.734  272.191  271.869  273.217  271.607 
DATE 2017:067:02:52:05 obsn 696 az 297 el 60 freq_MHz  1422.8800 Tsys 231.636 Tant 45.673 vlsr   33.33 glat  0.188 glon 162.617 source G162.5 
Fstart 1421.877 fstop 1423.883 spacing 0.009375 bw    2.400 fbw    2.000 MHz nfreq 256 nsam 5242880 npoint 214 integ    10 sigma    0.763 bsw 0
Spectrum      9 integration periods
 270.591  269.898  271.850  272.095  272.605  272.028  270.927  271.906  272.463  272.152  269.961  271.593  271.763  271.453  271.998  272.870  272.631  272.364  271.387  271.306  271.524  274.663  273.026  273.673  272.581  272.554  274.350  271.699  271.622  271.817  272.451  274.941  273.246  272.443  271.166  273.479  271.839  271.764  273.327  272.551  273.940  273.641  272.900  272.230  274.287  273.576  274.866  273.201  274.423  273.999  272.160  272.003  274.337  273.501  272.847  273.290  273.336  273.735  274.316  273.763  275.182  271.944  273.168  273.470  274.731  273.684  273.953  273.652  273.460  274.814  275.353  274.553  274.198  272.676  274.649  273.144  274.549  273.114  274.909  274.267  272.480  271.816  271.100  272.973  271.073  272.686  271.724  273.389  273.154  272.097  273.139  273.838  273.302  273.735  273.736  273.824  272.035  274.191  274.553  275.927  273.327  274.033  273.909  272.927  274.413  275.028  274.343  273.310  272.595  273.103  274.351  272.747  274.840  275.232  273.258  274.189  274.099  273.364  275.419  274.081  273.633  275.561  274.423  274.290  273.950  272.788  275.051  274.291  274.838  272.121  272.262  272.204  274.559  273.733  272.574  270.639  272.595  271.337  274.579  273.974  274.066  272.221  272.788  271.626  273.271  271.872  273.800  274.619  272.924  273.897  273.671  272.898  273.262  272.210  272.600  274.686  273.478  273.316  273.150  273.821  274.073  272.536  271.658  272.111  274.069  273.032  272.849  273.342  272.529  273.470  273.415  272.312  272.508  273.424  272.859  273.438  273.553  272.426  273.739  273.253  273.825  272.567  272.442  274.029  272.084  271.745  272.000  271.779  272.064  271.534  272.256  271.254  271.723  272.799  272.271  270.590  272.409  272.592  272.478  272.092  270.800  271.892  270.766  272.780  272.067  271.331  269.811  271.063  273.060  272.456  270.694  271.416  270.323  271.506 
DATE 2017:067:02:52:27 obsn 697 az 293 el 62 freq_MHz  1422.8800 Tsys 231.636 Tant 40.601 vlsr   34.43 glat  0.192 glon 165.117 source G165.0 
Fstart 1421.877 fstop 1423.883 spacing 0.009375 bw    2.400 fbw    2.000 MHz nfreq 256 nsam 5242880 npoint 214 integ    10 sigma    0.763 bsw 0
Spectrum      9 integration periods
 268.670  267.928  270.203  270.405  270.736  270.810  268.293  270.020  268.925  270.463  268.986  270.310  270.086  270.213  269.313  268.278  268.190  271.648  270.592  272.821  270.664  269.980  271.541  272.190  272.247  272.386  272.094  273.000  272.051  270.521  271.750  272.020  272.296  272.823  271.878  271.531  270.304  271.006  272.013  270.778  271.374  273.474  271.966  270.424  269.406  270.293  272.385  271.451  271.388  270.503  269.507  271.126  271.743  270.795  271.836  271.454  271.890  271.343  273.077  271.642  271.027  271.382  272.817  273.129  271.792  272.848  270.577  271.930  272.026  271.599  273.057  272.947  273.138  271.600  271.492  271.993  271.734  271.851  271.797  271.816  270.192  271.702  272.002  270.928  271.462  271.325  270.938  273.603  271.830  271.709  272.115  271.447  272.174  271.638  272.793  283.920  272.285  271.741  272.518  272.838  274.395  273.857  273.878  273.471  272.582  272.584  274.087  274.338  272.771  274.174  273.943  273.023  273.718  273.058  273.443  273.957  271.122  272.992  273.035  273.504  273.382  272.670  274.464  273.167  273.570  273.699  274.958  274.331  273.951  273.428  273.597  273.261  275.099  274.061  272.207  272.196  273.697  272.536  274.861  271.780  272.830  272.517  272.670  273.329  272.742  272.719  272.024  274.092  272.641  272.041  273.778  272.560  272.311  272.275  271.911  273.634  273.104  272.084  272.665  273.189  272.918  272.973  272.071  272.308  272.898  272.941  271.309  272.889  274.236  272.965  272.062  271.001  272.363  274.328  271.847  273.203  273.742  273.400  273.886  273.598  273.675  274.436  273.471  274.553  273.345  273.414  274.094  273.195  272.638  273.995  273.334  272.687  272.243  271.793  275.013  273.400  272.186  271.607  271.424  273.184  272.664  270.730  272.162  271.475  270.809  271.406  272.012  270.277  271.871  272.135  272.824  271.876  272.096  273.864 
DATE 2017:067:02:52:48 obsn 698 az 289 el 63 freq_MHz  1422.8800 Tsys 231.636 Tant 45.418 vlsr   35.46 glat  0.195 glon 167.617 source G167.5 
Fstart 1421.877 fstop 1423.883 spacing 0.009375 bw    2.400 fbw    2.000 MHz nfreq 256 nsam 5242880 npoint 214 integ    11 sigma    0.724 bsw 0
Spectrum     10 integration periods
 270.176  271.889  273.619  273.110  272.812  273.621  273.310  270.951  272.273  272.858  272.731  275.211  272.329  272.289  272.337  273.255  274.480  274.838  273.984  274.965  273.265  272.895  272.967  273.758  274.422  273.939  274.185  274.115  275.403  272.976  273.686  272.905  275.556  273.575  273.314  272.226  274.044  272.715  273.559  274.156  276.713  274.335  272.286  273.285  273.528  272.561  274.915  273.241  273.455  274.610  273.559  273.225  273.425  272.550  274.047  274.127  274.315  273.550  275.817  274.823  273.734  274.290  275.463  274.337  273.748  273.767  275.057  272.740  272.384  274.113  275.696  274.748  273.055  272.929  273.380  273.592  273.229  272.415  274.003  274.734  272.360  273.751  271.953  272.173  273.173  273.004  273.046  275.776  274.271  273.366  274.643  272.406  274.235  273.551  272.828  282.623  275.936  274.057  273.187  273.597  276.613  273.912  274.104  273.311  274.660  274.569  275.575  274.518  275.214  278.912  274.780  274.145  274.722  273.901  274.303  273.792  274.620  278.099  275.814  273.093  275.385  274.868  273.524  274.071  274.486  274.930  276.151  273.336  273.387  273.211  274.984  273.976  272.704  273.832  276.701  274.271  275.165  274.533  275.997  276.445  275.615  274.553  273.402  274.689  274.234  273.460  274.675  277.639  273.041  273.460  274.224  273.972  272.850  275.318  274.974  274.669  277.218  275.082  273.846  274.665  274.145  274.871  273.297  275.033  275.633  274.142  273.977  273.819  274.286  272.162  274.062  272.568  273.769  276.396  274.973  273.911  274.410  275.019  275.487  274.060  273.587  275.004  274.415  274.972  275.021  277.145  275.462  273.910  275.542  275.604  275.832  273.891  273.966  273.926  276.392  273.299  272.479  274.545  274.020  273.865  273.676  273.006  273.935  273.645  273.580  273.813  273.586  272.276  274.164  272.329  272.412  274.558  273.633  272.731 
DATE 2017:067:02:53:25 obsn 699 az 279 el 66 freq_MHz  1422.8800 Tsys 231.636 Tant 45.285 vlsr   37.32 glat  0.200 glon 172.617 source G172.5 
Fstart 1421.877 fstop 1423.883 spacing 0.009375 bw    2.400 fbw    2.000 MHz nfreq 256 nsam 5242880 npoint 214 integ     3 sigma    1.322 bsw 0
Spectrum      3 integration periods
 271.169  272.880  272.239  273.911  267.932  270.115  271.631  271.569  271.865  272.091  271.853  273.865  272.063  274.446  272.588  272.035  271.724  276.923  270.820  274.831  274.700  276.295  274.486  276.369  273.124  276.693  271.767  274.061  274.144  273.222  275.811  274.602  275.589  272.636  274.008  273.463  273.093  270.704  273.496  273.041  273.790  274.520  274.711  276.442  271.443  273.784  276.065  273.305  273.901  273.136  272.694  272.879  274.712  274.071  274.403  273.439  273.891  273.534  276.807  275.010  274.370  274.597  273.850  273.233  272.481  273.596  276.181  274.889  275.018  272.807  273.301  272.204  273.494  273.936  273.291  272.755  269.115  275.083  275.144  276.315  274.339  272.135  276.223  274.074  275.315  275.660  274.119  273.792  275.020  276.417  273.229  272.061  274.056  275.183  277.591  281.407  272.344  274.402  273.742  275.645  275.523  274.346  275.614  274.695  275.234  276.191  275.200  276.931  275.930  277.134  278.148  276.303  273.648  273.793  274.539  274.692  275.165  276.522  273.790  278.475  275.978  276.784  274.947  273.778  272.938  275.835  277.506  273.398  274.755  276.378  274.589  276.777  277.724  273.607  277.537  275.430  273.933  276.987  275.437  274.755  276.245  277.524  277.879  273.804  273.504  273.634  275.683  276.881  278.025  277.760  276.868  277.728  278.116  273.933  274.413  276.022  274.762  276.977  277.137  272.737  274.827  276.534  272.993  272.723  276.169  277.591  275.407  271.239  274.859  275.973  274.965  276.431  277.549  275.589  274.880  273.866  273.835  276.192  274.879  278.013  272.977  276.025  277.482  268.922  275.628  275.425  275.392  276.508  274.697  275.956  277.136  276.679  273.326  274.483  274.981  276.114  273.109  276.805  276.586  277.818  274.455  276.736  276.771  275.993  275.824  276.828  275.864  277.325  277.393  274.538  273.012  276.598  275.335  272.753 
DATE 2017:067:02:54:02 obsn 700 az 267 el 67 freq_MHz  1422.8800 Tsys 231.636 Tant 54.819 vlsr   38.89 glat  0.203 glon 177.617 source G177.5 
Fstart 1421.877 fstop 1423.883 spacing 0.009375 bw    2.400 fbw    2.000 MHz nfreq 256 nsam 5242880 npoint 214 integ     1 sigma    2.289 bsw 0
Spectrum      1 integration periods
 286.335  283.628  284.950  287.062  282.505  288.422  284.516  285.342  289.468  286.014  282.295  287.429  284.827  287.821  284.158  290.599  284.055  283.515  290.066  285.992  288.062  290.727  293.101  284.541  284.121  289.028  290.824  286.713  286.845  290.119  288.252  287.200  285.123  287.013  286.358  282.552  285.856  285.087  284.393  285.750  290.542  283.864  288.762  286.746  284.192  287.689  284.820  286.121  288.063  284.120  283.174  283.604  286.536  284.610  286.619  287.424  284.400  286.104  282.050  286.594  282.928  284.340  287.708  287.030  285.573  281.833  286.173  282.294  284.792  285.090  285.762  284.506  287.746  286.057  283.509  284.580  282.107  279.472  278.848  282.388  282.993  282.517  281.509  280.642  287.111  287.592  284.798  284.427  281.681  287.282  285.515  286.376  285.010  280.555  286.741  294.423  282.404  287.227  287.500  286.901  286.592  285.633  287.272  285.907  287.964  287.436  289.439  284.106  284.475  284.502  289.145  288.521  291.337  286.672  287.005  285.284  283.733  286.213  288.414  282.238  283.811  287.918  284.477  282.912  283.786  282.428  282.065  286.293  282.636  288.454  289.900  286.691  285.280  282.312  292.348  288.067  287.445  286.664  280.613  287.182  283.554  283.599  286.645  287.309  289.419  286.348  285.449  286.918  284.987  288.892  289.440  281.346  289.613  286.764  286.572  289.287  285.368  283.910  282.401  281.700  288.363  285.585  288.472  291.461  286.255  287.749  285.270  280.771  293.855  281.239  287.418  288.486  288.469  285.904  283.607  289.431  290.097  287.415  282.880  288.474  285.311  281.563  290.908  286.960  282.810  285.779  285.939  287.177  288.349  287.318  284.895  283.537  285.080  284.338  286.318  283.526  286.122  286.704  285.471  285.784  282.769  286.267  289.044  290.718  285.407  287.192  286.267  285.286  286.369  288.960  279.725  285.070  285.197  287.528 
DATE 2017:067:02:54:23 obsn 701 az 261 el 68 freq_MHz  1422.8800 Tsys 231.636 Tant 46.978 vlsr   39.57 glat  0.205 glon 180.117 source G180.0 
Fstart 1421.877 fstop 1423.883 spacing 0.009375 bw    2.400 fbw    2.000 MHz nfreq 256 nsam 5242880 npoint 214 integ     2 sigma    1.619 bsw 0
Spectrum      2 integration periods
 273.770  272.946  273.710  274.194  274.408  275.821  275.359  274.411  275.149  274.113  273.629  272.909  273.092  273.158  276.980  274.018  273.237  274.397  277.982  276.411  276.830  277.742  275.697  276.899  273.233  274.927  277.141  273.907  276.949  274.491  276.041  274.422  278.124  275.625  275.952  276.187  276.309  273.021  274.642  276.277  274.223  276.465  277.223  275.469  275.394  277.687  280.321  276.971  276.212  273.753  274.359  275.248  277.484  273.182  273.453  278.117  276.710  276.951  278.951  277.546  274.239  274.155  277.729  276.901  279.193  275.712  274.463  275.836  273.098  276.951  276.753  275.595  273.344  274.610  272.603  277.457  276.004  277.058  276.884  272.702  272.808  273.787  277.471  276.548  274.633  277.282  276.635  277.319  278.140  277.813  281.089  278.808  277.037  276.012  273.794  281.371  277.771  276.627  278.208  276.596  278.863  276.900  275.663  277.983  279.428  276.582  276.970  279.515  279.130  281.929  278.396  280.376  276.519  278.339  277.005  277.855  278.978  274.479  282.857  273.081  276.287  279.629  276.656  277.801  278.442  276.242  278.386  276.692  274.987  277.806  276.064  275.360  279.927  278.390  280.578  275.130  276.581  276.197  277.586  278.826  281.490  276.825  273.908  276.407  278.464  276.014  279.536  280.895  279.788  277.316  281.976  279.123  279.712  277.877  279.857  277.320  276.790  279.582  277.107  278.988  279.219  278.249  278.616  279.664  278.936  279.482  277.738  279.906  277.132  280.239  280.173  275.292  279.164  281.077  276.275  281.254  276.213  278.343  276.001  277.285  277.360  279.421  283.024  281.489  280.150  280.034  281.765  283.211  285.293  283.397  282.522  279.525  278.679  281.435  277.872  282.898  280.032  280.776  282.717  280.864  279.667  282.828  279.956  277.409  279.780  279.339  283.325  282.962  276.973  282.999  277.705  282.924  281.607  280.356 
DATE 2017:067:02:54:44 obsn 702 az 255 el 68 freq_MHz  1422.8800 Tsys 231.636 Tant 43.219 vlsr   40.17 glat  0.205 glon 182.617 source G182.5 
Fstart 1421.877 fstop 1423.883 spacing 0.009375 bw    2.400 fbw    2.000 MHz nfreq 256 nsam 5242880 npoint 214 integ     2 sigma    1.619 bsw 0
Spectrum      2 integration periods
 271.362  266.878  272.427  272.819  269.672  272.963  270.073  268.638  271.073  270.865  266.540  272.461  267.192  268.686  271.166  271.555  272.748  270.391  269.711  274.714  272.228  270.386  272.479  272.382  273.430  271.448  275.221  273.714  269.963  273.794  274.284  271.561  269.896  272.181  271.185  271.808  268.252  273.927  273.660  272.495  273.837  270.746  271.698  270.710  273.638  272.127  269.892  270.929  271.753  272.791  270.909  273.816  271.823  273.196  274.018  273.498  274.013  271.773  272.951  274.863  273.648  273.149  274.199  273.444  273.933  275.790  272.251  271.906  275.797  272.874  270.869  273.399  270.293  270.875  274.488  272.345  276.884  274.368  267.762  270.001  276.104  272.331  272.264  273.035  273.238  272.582  275.453  271.407  279.755  275.253  275.208  274.494  272.552  274.007  273.692  275.391  273.427  272.591  272.097  273.049  272.870  275.353  271.912  271.444  275.126  276.885  278.818  275.486  276.668  273.720  274.691  274.876  275.139  274.276  275.329  276.226  276.756  277.218  276.160  272.515  272.686  273.560  274.322  274.383  275.907  275.218  277.423  274.205  275.827  273.958  271.609  274.427  276.394  278.465  277.217  276.078  271.721  274.641  274.820  276.297  272.601  271.152  274.996  277.449  271.487  271.856  276.188  275.588  273.161  277.871  279.483  275.845  278.639  275.317  275.028  275.466  271.924  274.588  276.342  275.738  276.254  271.489  277.883  273.182  276.705  275.608  272.641  272.817  274.950  277.009  274.397  276.742  278.220  277.542  276.743  274.862  279.979  274.836  278.342  275.439  279.847  278.171  276.550  279.338  278.713  277.287  275.789  275.782  276.570  277.762  275.082  276.168  273.933  276.318  276.551  279.395  276.519  276.984  276.541  274.827  277.259  280.082  276.442  276.858  275.013  275.257  276.233  275.970  275.189  273.214  274.039  279.615  273.138  275.399 
DATE 2017:067:02:55:06 obsn 703 az 248 el 68 freq_MHz  1422.8800 Tsys 231.636 Tant 42.397 vlsr   40.70 glat  0.206 glon 185.117 source G185.0 
Fstart 1421.877 fstop 1423.883 spacing 0.009375 bw    2.400 fbw    2.000 MHz nfreq 256 nsam 5242880 npoint 214 integ     3 sigma    1.322 bsw 0
Spectrum      3 integration periods
 270.680  268.526  271.170  269.124  273.119  270.392  269.778  273.716  272.934  270.986  270.690  270.691  269.097  272.961  272.073  269.889  271.396  271.012  272.663  270.847  271.385  271.056  269.730  271.819  271.707  270.793  271.380  272.915  273.378  273.066  270.891  271.842  271.568  273.219  273.234  274.355  273.201  272.526  270.130  269.631  274.410  272.679  269.307  272.197  273.352  274.504  272.251  272.336  273.012  270.206  270.088  274.439  272.845  272.796  270.916  273.236  273.167  272.991  274.401  273.585  273.774  274.861  273.624  273.576  271.630  273.842  273.398  273.464  272.504  274.326  275.387  272.778  271.824  273.099  272.166  272.190  272.511  271.804  272.747  269.453  270.666  276.666  272.474  271.223  273.355  273.020  273.810  272.393  272.408  275.387  270.114  273.040  271.735  273.864  272.973  271.936  272.729  272.795  272.958  271.621  272.863  270.278  274.466  274.241  274.187  275.646  270.532  273.835  274.236  275.102  272.933  275.687  275.446  274.666  271.589  274.660  273.919  276.607  275.360  275.516  273.696  272.785  276.843  271.977  275.320  275.599  275.328  273.004  273.455  276.540  274.695  274.163  279.400  275.470  275.389  271.090  271.310  274.361  277.018  274.099  276.476  273.351  275.890  275.539  273.902  274.019  273.525  276.654  275.911  275.926  273.904  275.242  274.173  276.314  273.705  278.798  275.656  275.663  273.691  276.660  274.507  274.480  273.254  276.023  278.025  275.955  274.274  273.596  273.140  274.921  274.238  275.160  275.154  272.565  271.248  271.893  275.725  275.541  272.865  275.716  276.668  278.157  275.587  273.227  274.814  274.310  276.085  276.552  276.804  275.721  275.346  273.300  272.697  273.294  274.186  273.552  273.067  275.645  275.557  275.136  273.560  274.065  274.947  276.009  273.776  272.540  274.398  274.296  276.187  273.219  271.451  274.460  276.934  273.575 
DATE 2017:067:02:55:27 obsn 704 az 242 el 67 freq_MHz  1422.8800 Tsys 231.636 Tant 41.880 vlsr   41.15 glat  0.206 glon 187.618 source G187.5 
Fstart 1421.877 fstop 1423.883 spacing 0.009375 bw    2.400 fbw    2.000 MHz nfreq 256 nsam 5242880 npoint 214 integ     3 sigma    1.322 bsw 0
Spectrum      3 integration periods
 268.247  266.664  268.577  269.046  269.718  269.150  269.603  270.742  269.954  270.431  269.050  270.522  271.859  268.029  267.904  268.605  270.582  271.301  270.823  271.027  270.515  270.778  273.182  271.632  267.852  272.102  270.146  269.758  271.024  273.373  272.985  270.504  269.951  274.551  270.827  272.130  271.063  270.973  273.086  270.897  269.467  271.356  272.781  272.692  271.952  272.395  269.830  270.815  271.162  270.022  272.877  271.780  271.437  275.508  272.393  271.790  270.950  271.302  274.716  272.902  270.322  272.702  271.415  272.418  273.259  271.218  272.771  273.228  273.132  271.560  269.715  274.158  268.341  269.825  272.713  272.579  269.777  270.747  273.239  270.425  274.071  270.957  268.818  271.184  272.198  271.718  269.710  272.776  272.344  274.853  272.892  271.911  270.807  271.669  270.346  279.892  273.538  273.952  272.299  272.306  274.854  275.268  274.695  273.957  273.055  272.759  273.077  271.849  272.701  277.204  274.377  273.842  272.906  272.755  272.140  272.683  273.002  276.525  271.774  274.420  276.755  272.973  276.449  273.856  274.053  275.506  274.748  273.676  272.977  273.643  276.062  273.913  275.927  271.628  271.534  276.129  274.859  273.432  274.396  273.533  270.275  273.253  275.371  274.237  272.340  273.052  275.414  275.297  274.881  274.865  272.652  274.037  273.935  275.072  276.189  275.503  274.649  273.090  272.124  277.832  274.509  274.790  271.953  275.447  275.534  272.955  275.069  275.877  276.424  273.537  273.742  274.025  274.326  273.994  272.450  277.523  274.552  275.716  273.104  274.542  275.466  276.403  273.672  274.536  275.731  273.087  274.070  276.109  276.326  276.855  277.549  273.180  274.755  278.682  277.715  274.960  273.488  277.735  275.365  276.216  276.033  275.354  276.764  275.904  276.640  274.921  277.459  276.030  274.634  276.543  271.664  276.206  273.191  274.374 
DATE 2017:067:02:55:48 obsn 705 az 236 el 67 freq_MHz  1422.8800 Tsys 231.636 Tant 46.506 vlsr   41.52 glat  0.205 glon 190.118 source G190.0 
Fstart 1421.877 fstop 1423.883 spacing 0.009375 bw    2.400 fbw    2.000 MHz nfreq 256 nsam 5242880 npoint 214 integ     4 sigma    1.145 bsw 0
Spectrum      4 integration periods
 272.806  273.739  272.900  276.115  273.178  274.677  275.787  276.980  276.606  275.418  275.950  275.728  273.221  274.064  274.428  272.657  274.036  274.178  275.809  273.574  274.560  273.404  276.231  276.514  277.995  273.382  274.878  274.652  275.855  275.856  277.036  274.405  274.578  274.805  273.824  272.459  276.203  277.012  278.786  275.751  277.640  276.789  277.974  274.529  274.219  275.836  274.698  274.983  278.077  276.759  278.826  277.141  277.650  277.245  275.063  274.828  277.972  276.029  277.283  277.906  275.896  275.322  276.571  274.373  275.897  276.418  276.494  274.606  275.951  274.972  274.748  275.349  275.977  275.759  275.029  278.211  275.748  276.514  278.143  277.655  272.371  274.561  276.518  276.099  278.657  276.440  274.819  274.759  276.157  275.547  274.735  278.528  278.227  276.837  277.615  278.413  278.361  276.536  279.441  275.342  275.657  278.626  278.807  278.729  276.241  277.736  278.407  277.167  278.034  278.252  278.208  277.793  278.660  277.291  277.729  277.848  279.144  279.124  281.183  280.582  280.109  280.478  277.132  279.710  277.333  276.347  278.457  277.180  277.661  278.001  279.181  277.808  281.049  278.990  279.050  276.632  277.686  279.289  278.381  277.038  276.791  277.160  277.551  277.567  278.948  279.838  279.275  280.273  280.799  277.628  279.671  279.040  278.788  278.705  277.029  282.246  278.813  277.527  279.604  277.166  278.117  276.786  277.440  279.954  278.010  282.104  280.151  278.536  278.466  280.028  277.719  279.870  280.838  279.404  280.993  280.523  276.964  280.846  280.471  280.380  276.775  277.993  280.857  278.340  279.640  281.188  280.757  278.689  280.840  278.000  279.146  276.545  276.001  278.150  278.729  278.603  279.391  280.969  281.250  277.839  278.822  281.100  279.239  278.706  280.225  278.982  277.625  280.131  279.361  280.807  278.381  278.058  280.242  279.301 
DATE 2017:067:02:56:09 obsn 706 az 230 el 66 freq_MHz  1422.8800 Tsys 231.636 Tant 44.177 vlsr   41.81 glat  0.205 glon 192.618 source G192.5 
Fstart 1421.877 fstop 1423.883 spacing 0.009375 bw    2.400 fbw    2.000 MHz nfreq 256 nsam 5242880 npoint 214 integ     4 sigma    1.145 bsw 0
Spectrum      4 integration periods
 269.068  270.047  269.466  272.388  273.530  271.266  273.982  273.460  273.467  274.156  271.398  272.661  272.471  273.331  270.145  273.935  273.715  273.297  272.656  273.944  271.112  272.308  274.373  272.776  274.474  275.428  276.267  274.802  273.693  273.146  273.355  272.996  272.190  275.526  273.602  275.153  272.448  271.605  273.017  273.517  274.803  272.299  274.940  272.987  271.635  272.010  274.651  274.626  276.509  275.740  274.684  272.831  272.315  275.502  274.490  275.002  273.431  273.842  274.855  270.746  273.222  273.102  275.111  273.457  274.375  273.429  272.538  274.853  271.817  271.767  274.836  273.727  274.594  274.273  274.421  272.886  273.133  273.143  272.744  273.469  276.145  273.109  273.022  272.411  273.345  272.371  275.321  274.507  273.621  277.119  274.473  275.621  274.159  274.276  274.504  279.577  275.581  274.580  272.716  273.357  275.807  275.429  274.636  275.346  277.343  277.079  275.833  273.897  275.426  276.440  275.053  275.081  275.034  274.792  276.121  274.643  274.727  276.054  273.421  276.257  277.273  276.948  274.986  273.508  273.366  273.851  275.728  276.383  274.622  272.799  272.700  274.744  276.255  276.599  276.660  272.488  269.737  275.809  275.306  275.391  273.635  273.906  273.906  273.071  275.890  278.153  276.821  275.965  274.587  274.048  276.003  276.538  273.858  272.218  273.014  275.769  275.618  275.771  275.717  273.595  274.049  274.423  273.478  275.388  273.560  276.871  275.619  276.188  275.350  276.228  274.980  272.716  274.024  275.581  273.884  275.934  274.876  276.374  277.465  274.116  276.455  277.974  276.376  275.850  277.938  275.033  276.461  273.029  278.415  276.586  276.982  275.306  280.087  277.120  274.190  276.633  276.586  278.278  276.451  273.929  276.486  274.577  275.646  274.715  273.257  274.506  277.519  276.674  276.418  276.757  277.024  276.578  275.050  277.238 
DATE 2017:067:02:56:30 obsn 707 az 224 el 65 freq_MHz  1422.8800 Tsys 231.636 Tant 40.113 vlsr   42.02 glat  0.203 glon 195.118 source G195.0 
Fstart 1421.877 fstop 1423.883 spacing 0.009375 bw    2.400 fbw    2.000 MHz nfreq 256 nsam 5242880 npoint 214 integ     5 sigma    1.024 bsw 0
Spectrum      5 integration periods
 265.291  267.219  268.760  266.858  268.816  266.359  267.537  266.646  268.313  269.136  267.224  268.192  267.396  268.301  268.898  269.320  266.373  267.944  269.981  267.672  269.453  268.647  269.725  267.918  268.862  268.061  269.390  269.054  271.181  267.541  270.885  267.629  270.110  269.322  269.695  268.285  268.835  268.912  270.747  268.450  268.806  270.861  269.147  270.314  267.530  270.896  270.757  270.876  269.800  270.313  270.522  269.217  270.919  268.996  272.913  271.192  270.974  269.938  269.128  269.690  268.924  269.631  270.996  271.351  270.600  270.415  271.246  269.899  267.375  268.006  269.460  269.972  268.338  269.276  265.846  270.043  268.572  266.583  267.873  269.891  270.255  269.480  271.705  271.313  269.095  268.508  270.712  271.579  271.330  270.169  270.435  271.166  270.457  270.186  271.730  275.004  269.500  271.404  270.750  272.406  270.838  270.755  271.215  268.812  271.414  273.963  269.577  271.685  272.078  272.184  271.343  273.102  270.631  270.419  274.019  270.099  272.135  271.180  272.075  274.801  271.271  272.689  273.659  271.607  269.684  271.009  272.138  271.603  271.768  271.471  272.140  269.150  271.460  271.707  271.605  273.762  270.847  270.996  270.922  272.244  271.780  269.784  271.011  271.767  273.827  271.233  271.879  273.352  271.597  271.192  270.629  270.647  271.203  271.474  272.936  273.226  272.372  273.578  271.404  272.943  271.861  271.925  270.444  271.736  272.852  271.641  272.916  271.271  272.547  271.755  271.853  272.697  271.049  274.004  274.096  272.715  272.789  272.223  271.699  272.315  272.297  273.337  273.283  272.459  272.844  273.082  272.406  273.153  271.998  272.068  273.649  273.577  273.149  272.349  271.261  271.496  270.904  274.375  272.486  271.250  271.363  271.562  272.812  272.450  271.468  271.594  271.136  271.050  271.606  270.155  272.746  273.239  272.413  272.199 
DATE 2017:067:02:56:51 obsn 708 az 219 el 64 freq_MHz  1422.8800 Tsys 231.636 Tant 40.313 vlsr   42.15 glat  0.202 glon 197.618 source G197.5 
Fstart 1421.877 fstop 1423.883 spacing 0.009375 bw    2.400 fbw    2.000 MHz nfreq 256 nsam 5242880 npoint 214 integ     5 sigma    1.024 bsw 0
Spectrum      5 integration periods
 263.683  266.457  270.310  269.798  268.167  269.501  269.713  267.281  265.980  266.341  266.896  269.311  267.034  268.448  267.920  270.835  268.162  268.834  268.369  270.302  270.684  268.813  268.148  269.305  269.016  266.821  269.712  267.217  267.462  268.176  271.045  270.157  269.547  269.534  269.560  267.573  268.266  269.822  269.931  268.261  268.485  270.139  267.470  266.522  269.434  267.938  269.839  267.510  269.022  273.393  269.551  267.178  265.751  269.343  267.404  267.595  268.705  269.373  267.950  268.703  268.589  269.122  269.249  268.345  267.820  266.459  268.648  268.558  267.577  268.001  273.288  269.499  268.891  269.532  270.983  268.133  268.251  266.534  268.115  272.054  267.652  267.510  268.841  268.486  268.299  270.094  269.209  270.466  271.296  269.700  269.402  270.352  268.934  267.309  269.678  280.637  269.427  270.223  269.682  271.221  271.341  270.045  270.101  273.438  270.698  271.433  270.528  270.818  270.693  272.130  268.790  268.873  271.525  270.816  270.446  269.117  270.644  273.626  270.000  268.473  271.826  268.147  270.835  271.201  268.186  271.259  272.071  269.374  270.124  268.493  270.462  273.513  272.889  272.400  269.258  270.461  270.048  269.815  272.584  270.924  270.199  271.350  268.820  269.853  271.331  269.317  270.515  272.150  271.304  270.393  269.790  269.435  270.050  270.264  268.960  271.244  268.279  270.495  270.109  269.191  267.589  270.293  268.982  270.282  270.586  271.948  271.699  268.697  269.292  269.843  270.168  268.850  270.742  271.951  272.051  270.813  270.336  272.617  269.887  271.682  270.249  271.913  269.478  271.431  272.889  272.523  271.184  272.017  272.774  270.768  270.356  271.846  272.285  270.497  270.817  271.224  270.893  271.859  272.141  268.898  272.062  271.086  270.979  271.746  269.747  273.060  270.544  271.112  269.448  271.660  270.603  274.686  271.725  270.315 
DATE 2017:067:02:57:13 obsn 709 az 215 el 62 freq_MHz  1422.8800 Tsys 231.636 Tant 38.342 vlsr   42.20 glat  0.200 glon 200.118 source G200.0 
Fstart 1421.877 fstop 1423.883 spacing 0.009375 bw    2.400 fbw    2.000 MHz nfreq 256 nsam 5242880 npoint 214 integ     7 sigma    0.935 bsw 0
Spectrum      6 integration periods
 270.976  268.923  269.685  269.575  271.965  270.590  269.322  271.821  270.299  269.751  269.790  269.701  269.225  270.928  267.619  269.620  269.060  269.966  269.652  270.459  270.689  272.126  270.631  272.334  271.016  271.109  271.630  271.894  271.587  269.226  273.076  270.771  272.654  269.787  270.735  272.358  270.446  269.734  269.997  271.801  270.180  271.305  270.287  271.634  270.015  271.939  270.674  269.313  270.354  273.353  269.070  270.527  270.394  270.401  270.735  272.203  270.643  272.354  272.684  271.125  272.022  272.441  270.803  271.240  270.543  270.279  270.381  273.561  272.991  270.663  270.769  269.758  267.492  270.916  269.332  270.173  271.404  270.405  269.914  270.227  271.225  270.759  270.804  270.637  270.416  271.310  269.451  271.450  270.487  274.449  273.294  270.510  271.519  270.997  271.134  278.680  270.689  270.206  270.924  271.514  272.775  273.046  273.110  271.943  271.610  272.340  270.149  270.391  273.088  272.557  274.644  272.509  271.352  270.722  271.528  271.860  270.652  272.253  272.103  269.896  270.530  271.859  273.502  272.971  271.382  272.086  274.114  271.831  270.419  272.986  272.269  272.951  292.723  270.649  270.066  270.930  269.210  272.114  271.053  270.695  270.533  270.674  271.527  271.454  271.774  271.952  269.856  271.328  271.084  271.722  271.886  271.480  270.521  272.234  270.413  273.071  272.668  270.537  269.159  270.767  271.275  272.109  272.279  269.900  272.893  272.305  270.157  270.881  270.924  273.074  270.384  272.092  272.883  271.540  269.847  269.701  271.345  272.549  270.213  271.518  269.842  272.064  270.250  271.234  272.055  273.215  271.848  273.375  271.092  270.595  270.550  271.045  268.967  269.866  273.449  271.640  273.935  271.917  272.972  271.263  272.723  271.830  271.514  270.475  270.922  269.140  270.237  270.589  271.499  269.642  269.747  271.080  270.674  271.065 
DATE 2017:067:02:57:34 obsn 710 az 211 el 61 freq_MHz  1422.8800 Tsys 231.636 Tant 38.056 vlsr   42.17 glat  0.197 glon 202.618 source G202.5 
Fstart 1421.877 fstop 1423.883 spacing 0.009375 bw    2.400 fbw    2.000 MHz nfreq 256 nsam 5242880 npoint 214 integ     7 sigma    0.935 bsw 0
Spectrum      6 integration periods
 268.937  270.792  269.694  271.380  273.302  273.707  270.693  271.256  270.615  272.130  271.430  272.483  269.352  270.080  271.140  271.002  272.725  272.630  272.453  271.243  271.341  272.560  271.481  273.827  273.112  271.338  271.328  271.109  272.398  270.462  273.115  272.744  274.264  272.026  271.803  271.908  270.021  272.133  272.410  270.896  271.469  273.906  272.964  271.121  271.614  273.213  270.092  271.802  271.294  271.475  271.122  270.569  271.315  271.405  271.646  270.091  271.929  270.932  273.399  273.058  269.877  271.358  270.782  273.508  271.649  272.411  274.077  270.978  270.565  271.372  270.941  270.112  272.465  270.767  273.585  271.537  270.283  270.224  271.773  272.157  272.727  271.288  270.780  270.994  272.321  271.105  271.834  273.388  271.090  271.284  272.726  269.913  272.336  271.540  271.160  271.481  270.730  272.252  272.055  271.446  273.139  272.052  272.336  270.709  272.878  274.195  271.754  272.090  272.421  271.880  270.363  271.138  274.395  272.600  272.328  270.177  269.568  272.205  272.554  272.342  271.700  272.005  272.569  271.894  272.009  270.174  270.846  270.321  271.844  271.240  270.920  270.813  288.379  271.195  272.198  271.133  270.498  271.193  271.523  270.696  270.231  271.336  272.180  271.927  271.266  271.478  274.056  271.934  270.352  270.085  271.160  270.785  271.946  272.543  270.718  272.277  272.229  272.103  270.438  270.019  270.999  269.542  271.091  269.695  271.397  271.609  270.396  270.931  267.911  272.515  271.589  270.905  270.893  270.767  272.374  269.868  271.906  271.403  272.482  271.488  270.802  272.349  271.424  270.648  271.500  271.830  271.660  271.544  270.730  271.315  270.166  270.418  270.503  273.084  269.149  270.303  271.040  269.686  270.558  269.332  271.241  269.250  270.890  269.222  269.737  271.354  269.852  269.700  269.267  268.803  268.277  269.299  270.798  271.370 
DATE 2017:067:02:57:55 obsn 711 az 207 el 59 freq_MHz  1422.8800 Tsys 231.636 Tant 36.077 vlsr   42.06 glat  0.195 glon 205.118 source G205.0 
Fstart 1421.877 fstop 1423.883 spacing 0.009375 bw    2.400 fbw    2.000 MHz nfreq 256 nsam 5242880 npoint 214 integ     8 sigma    0.865 bsw 0
Spectrum      7 integration periods
 263.680  264.197  265.867  265.834  268.035  267.574  266.306  265.686  265.529  265.791  263.832  264.435  264.734  263.129  264.764  266.218  265.378  264.979  265.682  265.512  266.810  265.898  266.482  267.468  266.634  267.298  266.728  266.518  267.746  267.414  266.525  266.834  266.074  265.122  265.338  267.598  266.350  266.103  263.597  265.229  268.529  266.931  265.486  266.302  266.946  269.539  266.569  267.102  267.731  266.360  266.879  266.329  265.210  266.737  267.202  268.647  267.258  266.602  267.227  267.605  267.691  267.941  267.408  267.148  267.708  267.367  267.533  267.088  267.875  269.163  267.725  268.628  267.482  267.201  267.440  265.614  266.267  265.336  266.576  266.717  266.277  266.067  266.023  267.888  267.193  268.588  265.063  267.553  267.504  267.070  269.375  268.622  265.813  265.868  267.640  271.863  267.277  269.476  269.070  267.675  268.737  268.103  268.481  267.243  269.206  268.414  269.298  267.824  268.161  267.773  268.868  271.042  268.889  268.757  267.473  269.693  267.772  267.972  267.576  268.826  268.859  269.443  267.336  268.069  268.867  267.927  267.861  268.500  270.480  269.193  266.398  268.804  271.362  267.397  268.538  269.752  268.316  269.069  268.510  266.758  267.667  268.542  266.370  269.764  268.328  268.817  267.885  268.348  267.165  267.979  268.139  267.355  267.596  268.401  269.129  269.079  267.514  268.347  267.769  268.140  267.720  270.926  267.244  268.352  268.365  269.010  269.601  268.356  269.296  268.296  266.946  268.135  268.612  267.535  268.268  266.770  266.816  268.255  269.898  267.462  268.508  266.205  265.990  268.042  270.365  266.093  268.295  267.632  269.217  269.762  269.149  268.842  268.238  269.722  266.125  268.536  267.637  267.110  268.129  267.123  268.185  266.471  269.833  268.827  268.935  268.239  267.670  268.205  268.387  267.366  269.564  266.477  268.076  266.421 
DATE 2017:067:02:58:32 obsn 712 az 201 el 56 freq_MHz  1422.8800 Tsys 231.636 Tant 35.209 vlsr   41.60 glat  0.188 glon 210.118 source G210.0 
Fstart 1421.877 fstop 1423.883 spacing 0.009375 bw    2.400 fbw    2.000 MHz nfreq 256 nsam 5242880 npoint 214 integ     4 sigma    1.145 bsw 0
Spectrum      4 integration periods
 261.626  263.856  265.942  265.813  264.303  265.169  265.744  264.687  263.303  266.419  266.068  266.819  263.295  261.259  265.826  266.062  265.059  264.420  265.027  268.735  266.265  263.047  265.164  264.454  266.922  263.691  263.627  265.272  264.831  265.304  266.571  265.483  267.731  265.951  263.079  265.362  264.756  264.179  266.221  262.201  265.552  268.101  263.808  263.521  264.445  265.600  264.873  264.222  264.376  267.294  264.427  263.903  265.610  266.079  265.876  264.130  263.278  264.047  265.158  262.942  264.379  268.965  266.259  268.003  265.114  265.396  266.884  263.786  264.165  264.998  267.123  266.091  264.419  266.398  263.931  267.605  266.294  264.810  265.646  267.881  265.520  265.728  266.365  264.071  267.291  265.696  265.343  267.341  266.940  266.498  263.710  266.145  266.014  264.345  266.950  270.978  267.153  264.504  265.433  265.914  266.748  266.931  266.919  265.373  266.450  266.984  264.642  266.754  266.321  267.093  268.967  266.618  267.909  265.690  265.883  267.637  269.346  268.377  266.457  265.611  268.486  267.591  268.730  265.420  265.573  267.591  267.928  266.648  267.802  263.928  267.127  267.358  272.168  266.676  266.766  267.121  268.472  264.388  267.563  266.265  266.088  266.185  266.880  266.462  265.635  263.819  266.768  268.099  266.747  266.789  265.664  266.817  268.458  266.210  268.248  268.237  267.792  264.093  264.814  267.838  266.190  266.410  266.360  266.763  269.661  266.846  266.333  268.364  266.423  268.120  269.046  268.621  266.501  265.554  266.597  267.821  271.379  269.972  265.590  266.678  268.131  266.139  267.932  267.843  266.523  264.814  266.774  267.906  267.034  268.195  267.163  266.877  266.112  267.444  268.376  268.112  268.479  268.299  265.665  265.472  266.416  266.513  265.890  265.499  267.506  266.572  266.032  263.753  264.965  264.157  267.637  270.990  266.130  268.379 
DATE 2017:067:02:58:53 obsn 713 az 198 el 54 freq_MHz  1422.8800 Tsys 231.636 Tant 35.963 vlsr   41.25 glat  0.184 glon 212.618 source G212.5 
Fstart 1421.877 fstop 1423.883 spacing 0.009375 bw    2.400 fbw    2.000 MHz nfreq 256 nsam 5242880 npoint 214 integ     5 sigma    1.024 bsw 0
Spectrum      5 integration periods
 263.898  265.103  269.049  266.161  266.740  265.648  268.282  267.899  268.956  265.137  267.350  270.597  266.630  265.944  265.587  267.169  267.988  268.860  269.452  272.091  266.986  267.732  266.832  266.536  270.308  269.282  268.750  268.654  267.774  267.857  267.439  268.155  271.145  267.201  266.185  266.199  269.924  265.257  267.697  267.047  270.354  270.082  266.637  266.392  268.888  268.243  270.536  265.498  267.830  268.486  265.883  267.316  267.005  267.833  266.724  266.031  265.114  266.572  269.194  267.200  266.914  266.919  271.167  269.352  266.479  267.589  269.419  266.533  267.741  267.928  270.928  266.102  264.582  266.510  265.529  266.941  266.946  264.846  266.065  271.219  265.944  266.525  266.546  265.994  266.332  266.017  268.048  267.979  267.050  266.723  267.353  267.341  269.653  268.108  266.364  283.034  268.039  265.970  266.702  264.634  268.059  264.965  265.196  266.813  267.077  268.056  267.588  266.455  267.829  269.308  268.056  268.060  267.951  266.417  267.857  266.794  265.975  270.953  267.337  268.428  265.551  267.584  268.193  267.794  268.108  266.242  267.459  267.139  267.074  267.162  269.156  267.001  277.350  268.387  267.567  268.943  267.573  266.443  268.876  266.701  265.411  267.567  265.628  267.220  266.187  267.143  267.404  268.112  265.917  265.266  265.447  267.026  265.267  265.176  266.129  268.485  268.967  268.075  268.794  266.538  267.808  267.450  265.585  264.717  269.416  267.392  267.591  268.379  265.470  266.073  267.006  266.182  266.347  267.716  267.740  267.299  266.494  266.268  265.970  264.770  267.217  267.515  265.568  267.803  268.273  267.720  267.140  266.895  267.475  265.313  267.126  267.701  266.808  267.004  267.779  270.237  266.844  265.840  266.583  267.158  263.965  263.444  267.292  264.943  264.883  265.024  266.134  265.795  264.830  264.131  265.742  267.951  267.189  265.189 
DATE 2017:067:02:59:14 obsn 714 az 195 el 52 freq_MHz  1422.8800 Tsys 231.636 Tant 38.911 vlsr   40.83 glat  0.180 glon 215.118 source G215.0 
Fstart 1421.877 fstop 1423.883 spacing 0.009375 bw    2.400 fbw    2.000 MHz nfreq 256 nsam 5242880 npoint 214 integ     5 sigma    1.024 bsw 0
Spectrum      5 integration periods
 265.929  268.034  270.527  266.442  267.996  267.643  267.409  267.775  267.321  266.629  264.982  271.199  268.181  268.111  266.457  265.543  267.438  267.556  268.362  268.701  265.888  266.268  266.264  269.501  270.538  266.441  268.576  269.366  269.086  268.728  267.459  266.373  268.151  266.255  267.507  266.903  267.080  266.166  264.754  266.797  268.863  270.233  266.680  266.376  268.723  265.938  265.614  266.088  268.169  270.162  268.846  266.682  263.523  267.239  263.317  265.256  267.342  265.758  269.194  267.277  268.687  265.787  269.746  265.827  265.800  263.141  267.454  266.813  266.878  267.578  268.741  264.580  266.390  267.362  267.262  266.938  267.179  267.969  267.446  268.249  266.300  265.296  267.096  269.433  267.647  266.682  267.048  266.452  268.466  266.598  265.473  265.822  266.161  266.491  268.140  303.349  265.838  266.455  265.598  267.179  267.219  267.951  267.300  265.829  268.437  265.761  266.434  266.434  267.304  269.085  267.291  266.502  267.065  266.531  267.022  265.704  266.181  267.455  264.819  267.250  266.986  268.081  267.537  265.756  267.423  266.441  268.990  266.077  266.292  266.224  266.973  262.777  265.949  266.249  266.779  266.956  266.592  266.481  268.228  265.923  265.431  267.733  265.141  264.211  265.227  267.486  264.888  267.248  265.385  266.348  265.279  264.846  265.911  265.653  262.500  267.165  267.089  263.666  265.710  267.730  265.847  265.694  265.154  265.215  266.893  263.216  265.960  264.672  264.996  266.622  265.049  267.570  265.339  266.787  265.283  264.675  266.115  267.131  262.626  265.628  266.981  268.001  268.651  267.353  267.052  266.377  266.821  264.802  264.344  267.404  265.912  266.511  267.144  264.929  267.258  266.875  266.161  266.491  265.007  265.013  265.741  264.440  268.589  265.715  266.213  263.760  266.647  262.022  264.200  265.784  266.111  264.628  267.759  265.790 
DATE 2017:067:02:59:36 obsn 715 az 193 el 50 freq_MHz  1422.8800 Tsys 231.636 Tant 35.751 vlsr   40.32 glat  0.176 glon 217.618 source G217.5 
Fstart 1421.877 fstop 1423.883 spacing 0.009375 bw    2.400 fbw    2.000 MHz nfreq 256 nsam 5242880 npoint 214 integ     7 sigma    0.935 bsw 0
Spectrum      6 integration periods
 263.323  264.855  265.696  264.948  265.161  265.570  264.369  264.980  264.154  264.935  264.050  261.903  264.326  263.878  263.309  267.408  263.788  266.404  265.357  265.263  263.915  267.653  265.883  266.514  268.034  265.918  266.066  266.317  267.127  265.831  263.648  265.111  265.831  264.816  264.853  266.586  263.791  265.610  264.463  265.683  264.465  264.541  263.088  266.048  264.502  266.267  266.169  265.977  266.215  265.849  266.408  267.378  266.076  262.573  266.014  266.393  265.485  267.263  266.830  265.050  266.712  266.753  265.380  266.300  267.314  264.608  265.999  266.273  267.914  264.057  266.320  266.608  264.204  264.210  266.535  264.356  264.580  265.918  266.207  266.139  266.835  266.379  265.390  266.119  266.933  264.274  265.020  265.256  266.042  266.098  264.721  266.182  267.726  265.219  267.816  313.950  267.290  266.749  267.113  266.128  264.962  265.152  265.823  267.096  266.595  267.020  266.150  267.293  265.218  266.127  265.675  267.362  265.583  266.576  269.258  268.234  267.442  267.565  266.752  265.607  267.262  265.801  268.336  265.148  266.796  266.921  263.069  264.622  266.128  267.161  266.674  265.365  267.358  267.603  265.478  266.219  266.738  266.498  265.462  264.881  267.334  266.439  267.001  267.880  265.270  266.858  267.269  268.838  268.207  267.060  268.408  267.821  266.817  266.836  266.051  268.402  265.398  267.557  266.915  266.423  265.070  267.831  267.080  267.304  266.409  266.761  268.046  264.788  266.777  264.664  267.215  267.340  266.150  269.047  267.434  266.545  265.301  267.389  265.785  268.184  267.480  267.507  268.373  268.383  267.004  267.609  267.284  265.926  267.622  267.272  269.116  266.232  267.112  268.509  268.447  265.588  264.012  265.636  267.134  265.221  265.446  267.229  266.694  266.801  266.504  266.756  267.700  266.990  265.713  265.774  266.334  266.385  264.848  265.463 
DATE 2017:067:02:59:57 obsn 716 az 191 el 48 freq_MHz  1422.8800 Tsys 231.636 Tant 34.467 vlsr   39.74 glat  0.171 glon 220.118 source G220.0 
Fstart 1421.877 fstop 1423.883 spacing 0.009375 bw    2.400 fbw    2.000 MHz nfreq 256 nsam 5242880 npoint 214 integ     7 sigma    0.935 bsw 0
Spectrum      6 integration periods
 261.932  262.941  262.794  263.850  264.855  264.882  264.492  264.542  264.570  262.312  263.613  264.365  262.826  263.049  264.678  262.457  264.091  265.263  265.653  262.512  264.410  264.207  264.781  265.447  265.130  264.307  263.887  264.032  265.074  264.689  265.200  266.557  263.128  264.824  265.120  264.545  263.935  262.354  265.048  264.473  263.993  265.367  266.217  263.818  265.313  266.550  264.745  265.146  264.175  266.908  264.957  264.153  265.673  265.929  266.377  267.009  263.614  266.022  266.871  265.271  266.375  267.546  265.717  266.105  265.101  265.873  264.555  265.794  265.413  266.490  265.696  265.658  265.527  264.488  264.513  264.794  264.815  265.830  262.969  267.221  264.062  264.784  265.363  266.285  266.271  265.667  265.039  266.936  266.970  265.721  265.695  265.822  265.788  264.555  266.890  294.369  264.634  265.278  265.623  266.154  267.224  266.583  266.707  267.016  267.426  265.740  267.313  266.160  267.084  267.603  267.350  263.813  268.814  267.505  266.269  268.298  267.592  267.911  266.181  268.256  265.797  266.322  269.051  267.211  265.720  267.292  266.010  265.644  265.134  265.940  265.171  265.710  267.951  268.378  266.475  266.159  265.380  266.219  265.875  265.398  266.338  265.232  266.003  265.655  267.867  265.403  266.998  264.735  265.553  264.933  267.531  266.928  267.214  266.194  267.904  265.724  264.588  267.284  265.297  268.415  266.656  265.908  266.704  265.772  265.178  266.470  265.518  268.519  266.295  267.609  267.449  265.746  265.786  265.821  267.270  265.841  265.049  267.443  266.658  267.280  267.151  268.120  267.089  266.014  266.724  265.593  264.449  267.423  267.406  266.682  265.017  266.820  266.796  264.407  265.146  265.013  265.130  265.899  265.109  267.371  265.426  266.685  266.004  264.157  265.615  264.638  265.801  266.744  267.314  265.934  266.284  266.758  265.754  264.972 
DATE 2017:067:03:00:18 obsn 717 az 189 el 46 freq_MHz  1422.8800 Tsys 231.636 Tant 35.727 vlsr   39.08 glat  0.166 glon 222.618 source G222.5 
Fstart 1421.877 fstop 1423.883 spacing 0.009375 bw    2.400 fbw    2.000 MHz nfreq 256 nsam 5242880 npoint 214 integ     8 sigma    0.865 bsw 0
Spectrum      7 integration periods
 262.576  263.934  265.455  265.252  265.251  264.954  266.358  265.711  265.238  265.360  263.263  267.770  265.519  264.479  263.837  265.432  266.193  265.770  265.327  266.433  263.863  265.697  262.506  264.999  265.713  265.042  262.546  264.452  266.588  266.359  265.397  265.303  268.057  265.900  266.261  264.174  264.819  266.835  266.125  266.467  267.494  267.321  264.282  265.267  265.789  267.141  268.382  267.290  266.167  268.076  265.340  265.693  268.123  266.764  262.489  267.452  265.362  264.847  269.569  266.543  265.225  265.801  265.285  266.681  266.156  265.705  267.650  266.035  264.795  265.519  266.582  266.845  266.298  267.392  267.112  265.598  265.619  265.259  266.458  267.785  265.693  266.779  266.854  266.849  266.457  264.856  267.070  266.993  267.439  265.903  266.324  266.444  267.639  265.434  266.484  272.959  266.932  266.931  267.782  265.833  269.665  265.339  268.731  267.651  267.424  267.359  268.040  269.146  267.528  271.238  266.348  267.188  267.341  267.058  268.084  267.816  265.182  267.316  266.310  267.010  267.937  267.389  270.288  268.872  266.568  266.404  268.548  266.534  265.832  265.902  267.514  268.053  272.924  266.825  268.162  267.925  266.234  267.945  266.432  268.181  265.708  267.219  266.391  269.657  265.962  266.832  267.835  269.327  267.419  268.542  266.714  269.510  266.555  267.304  266.644  269.555  269.116  266.156  268.212  266.454  268.796  267.666  267.920  268.703  268.119  266.964  266.740  267.543  266.569  266.613  266.182  266.645  267.541  269.578  268.805  266.386  265.729  268.148  267.326  267.242  266.539  269.097  267.969  268.275  269.562  268.055  267.525  268.569  267.254  268.273  267.599  266.663  267.539  266.837  268.312  269.123  268.021  267.082  267.092  266.969  266.685  266.368  268.719  264.732  268.253  267.471  267.689  266.843  265.535  264.953  266.692  268.508  266.858  267.994 
DATE 2017:067:03:00:39 obsn 718 az 187 el 44 freq_MHz  1422.8800 Tsys 231.636 Tant 37.926 vlsr   38.35 glat  0.160 glon 225.118 source G225.0 
Fstart 1421.877 fstop 1423.883 spacing 0.009375 bw    2.400 fbw    2.000 MHz nfreq 256 nsam 5242880 npoint 214 integ     8 sigma    0.865 bsw 0
Spectrum      7 integration periods
 264.039  265.238  269.731  266.455  267.979  268.120  266.121  267.027  264.885  267.813  265.717  268.793  267.071  264.854  265.620  266.106  266.492  267.005  267.426  268.288  267.539  266.934  267.723  269.193  268.632  268.905  269.068  266.871  270.236  267.101  265.847  267.637  268.687  268.178  268.248  266.377  266.684  267.997  266.301  267.202  268.532  270.282  265.843  266.676  267.855  268.119  266.710  267.637  267.627  271.187  265.643  268.057  268.057  268.852  267.222  267.632  268.457  269.841  268.584  267.700  268.538  268.307  267.182  269.713  267.415  267.066  269.191  267.820  268.668  266.574  272.156  267.108  268.017  267.451  268.891  269.069  266.939  268.764  268.406  269.999  267.554  266.999  266.859  268.626  268.392  268.829  268.482  268.306  268.323  268.124  268.776  269.117  269.981  270.033  269.589  288.565  268.770  267.152  267.878  268.631  269.245  267.432  269.319  270.148  268.245  268.082  269.253  268.899  271.703  271.998  268.382  267.969  267.499  268.268  267.837  269.845  269.808  272.507  268.664  269.031  269.029  268.516  271.307  268.388  269.381  268.828  269.941  268.821  267.786  269.922  268.274  268.701  275.528  269.914  269.787  267.560  269.507  269.961  269.352  269.687  268.976  270.680  267.737  269.022  267.338  268.079  268.707  272.138  268.408  269.903  268.579  269.506  268.519  269.089  269.238  271.757  272.732  270.137  268.531  268.595  267.974  267.105  269.036  268.473  270.978  269.632  268.185  267.271  266.936  269.266  268.630  271.451  268.953  270.786  271.062  268.535  269.748  272.087  269.145  269.025  267.802  269.275  268.397  268.677  268.429  270.693  269.057  268.793  270.594  270.705  270.464  267.632  268.355  267.739  271.245  268.139  267.313  269.755  268.241  268.288  268.488  267.588  272.044  268.251  266.150  266.338  268.270  267.931  268.404  268.010  268.533  273.054  268.259  267.409 
DATE 2017:067:03:01:00 obsn 719 az 185 el 42 freq_MHz  1422.8800 Tsys 231.636 Tant 39.494 vlsr   37.55 glat  0.155 glon 227.618 source G227.5 
Fstart 1421.877 fstop 1423.883 spacing 0.009375 bw    2.400 fbw    2.000 MHz nfreq 256 nsam 5242880 npoint 214 integ     9 sigma    0.809 bsw 0
Spectrum      8 integration periods
 265.038  265.956  268.125  265.683  267.515  269.364  266.284  267.643  266.352  268.038  266.418  268.103  266.576  266.729  266.522  265.347  266.501  269.132  267.819  269.500  266.596  267.703  267.595  270.881  266.772  268.133  268.210  269.868  269.995  267.920  268.381  269.222  268.416  268.999  267.896  266.740  268.779  269.240  268.057  267.791  267.278  268.598  267.809  268.546  269.089  268.572  270.176  267.166  269.599  270.300  268.041  267.818  268.053  269.167  268.401  268.811  269.919  269.151  268.792  269.862  268.521  268.710  271.267  268.749  268.128  271.496  268.695  270.932  269.200  268.278  268.743  268.595  268.364  268.503  269.095  269.770  268.385  269.471  268.287  271.381  270.660  267.918  268.740  268.755  268.718  269.680  268.470  269.860  268.486  268.996  269.415  268.916  267.887  268.514  271.229  304.576  269.789  269.512  269.867  270.324  271.114  270.125  270.685  270.797  271.129  270.478  271.610  268.876  269.975  271.060  270.209  270.892  269.212  270.982  271.383  270.534  269.699  272.561  269.486  270.059  270.143  269.792  270.827  269.915  270.260  270.209  271.133  269.019  268.518  269.903  269.237  270.007  274.453  267.963  269.078  267.748  268.301  270.242  270.141  270.310  269.297  270.451  269.503  269.487  270.229  269.626  269.551  271.993  268.798  268.702  270.201  269.428  270.459  270.173  270.672  271.773  272.852  270.194  268.217  266.754  268.547  269.539  268.601  272.233  271.727  269.036  269.956  269.201  268.030  268.529  269.799  270.274  269.907  270.653  270.581  270.164  269.283  269.195  268.158  268.049  269.934  271.441  270.308  269.046  269.011  272.485  271.159  269.471  269.672  270.648  270.017  270.812  270.333  269.771  270.696  270.157  269.498  269.440  269.556  269.776  268.990  271.273  271.243  267.280  268.978  268.365  269.075  270.333  270.377  269.144  269.393  271.994  270.235  268.725 
DATE 2017:067:03:01:21 obsn 720 az 184 el 40 freq_MHz  1422.8800 Tsys 231.636 Tant 41.430 vlsr   36.67 glat  0.149 glon 230.118 source G230.0 
Fstart 1421.877 fstop 1423.883 spacing 0.009375 bw    2.400 fbw    2.000 MHz nfreq 256 nsam 5242880 npoint 214 integ     9 sigma    0.809 bsw 0
Spectrum      8 integration periods
 265.921  268.381  268.711  268.677  269.246  267.891  267.066  267.482  266.941  266.523  267.236  268.111  268.528  266.686  265.877  267.928  267.216  270.123  267.897  266.293  268.693  268.125  268.850  267.642  270.147  269.362  270.456  269.036  270.273  269.588  268.312  268.290  271.074  267.622  267.809  268.865  268.244  268.697  268.016  268.866  269.932  271.107  268.110  269.588  267.068  268.585  270.212  267.903  268.561  267.275  269.642  268.693  268.465  267.129  270.107  268.285  270.463  269.399  268.305  268.716  268.702  269.054  268.891  269.005  270.810  269.105  269.281  270.233  270.059  270.156  270.178  270.588  269.249  269.046  270.676  269.914  269.345  268.167  269.119  269.107  270.670  271.287  269.634  268.299  270.403  269.553  269.097  270.960  269.991  270.977  269.179  269.370  270.725  270.347  270.056  311.027  271.592  270.453  270.163  269.260  270.954  269.490  270.976  271.175  269.979  269.804  270.210  271.785  273.301  270.675  270.396  271.410  270.020  271.880  270.851  271.647  270.070  271.906  270.563  269.712  270.488  269.936  272.084  271.651  271.423  269.980  270.036  269.470  270.729  271.708  271.195  272.825  276.126  270.410  270.764  270.015  272.704  271.481  270.908  271.340  270.882  272.804  272.024  270.631  272.000  270.230  271.475  272.130  269.920  269.627  273.040  271.153  269.779  269.496  271.524  272.630  271.812  271.054  271.054  270.271  271.505  271.822  271.838  271.189  270.507  270.294  270.837  272.501  271.475  270.584  270.614  271.223  271.929  271.730  271.321  271.487  271.982  271.941  270.318  270.942  269.298  270.803  272.072  270.617  271.950  272.757  270.883  270.935  270.135  270.464  270.778  270.666  270.427  269.599  271.764  271.024  270.404  271.542  271.096  271.204  270.924  270.639  270.464  270.843  269.583  270.960  270.784  269.715  269.662  270.651  270.959  271.203  269.250  267.757 
DATE 2017:067:03:01:42 obsn 721 az 182 el 37 freq_MHz  1422.8800 Tsys 231.636 Tant 38.226 vlsr   35.72 glat  0.142 glon 232.618 source G232.5 
Fstart 1421.877 fstop 1423.883 spacing 0.009375 bw    2.400 fbw    2.000 MHz nfreq 256 nsam 5242880 npoint 214 integ    10 sigma    0.763 bsw 0
Spectrum      9 integration periods
 262.568  265.967  269.266  264.342  265.820  266.817  266.963  264.145  265.841  264.679  265.301  268.622  266.061  264.290  266.356  266.131  265.789  267.012  265.394  268.702  266.470  264.485  265.636  268.444  265.771  265.745  266.602  269.676  267.315  265.754  266.455  266.976  267.167  267.590  264.699  267.085  267.763  267.191  267.954  267.438  268.503  268.367  266.821  265.119  268.931  266.277  267.610  267.452  268.460  269.826  266.884  266.073  268.084  268.320  267.725  269.362  268.174  268.703  269.489  267.111  268.532  267.461  269.197  267.662  266.012  267.920  267.954  267.261  267.703  267.617  269.741  268.835  267.793  268.424  267.904  268.040  266.086  266.407  269.225  269.443  267.425  265.510  267.892  267.322  268.309  268.900  266.750  271.187  268.990  267.500  267.239  268.472  270.493  268.436  269.558  319.283  270.295  268.210  268.003  268.623  271.100  267.758  267.882  270.161  269.861  269.727  268.897  269.826  269.362  272.743  269.718  268.959  270.983  269.806  268.504  269.615  269.632  271.884  267.093  268.240  270.723  270.855  270.613  269.664  270.556  269.518  272.208  268.303  268.206  269.531  272.202  268.574  269.036  268.626  270.553  268.742  268.404  271.085  270.217  269.164  269.719  268.493  268.815  270.518  270.715  268.658  269.391  271.960  270.544  270.128  269.575  268.446  267.792  269.676  269.791  273.373  273.568  268.370  268.830  269.013  269.309  269.502  269.189  268.984  273.017  270.478  267.909  269.390  270.056  268.779  269.748  269.531  269.234  272.542  270.338  268.246  271.185  273.227  269.711  271.030  270.210  274.371  270.380  269.371  271.178  272.177  270.643  271.161  269.011  269.924  271.424  270.499  270.653  268.770  272.672  270.347  270.055  268.913  270.092  270.083  270.013  269.719  273.780  268.988  267.797  270.352  270.754  268.694  269.026  269.367  269.626  274.750  268.705  270.018 
DATE 2017:067:03:02:04 obsn 722 az 181 el 35 freq_MHz  1422.8800 Tsys 231.636 Tant 37.539 vlsr   34.71 glat  0.136 glon 235.118 source G235.0 
Fstart 1421.877 fstop 1423.883 spacing 0.009375 bw    2.400 fbw    2.000 MHz nfreq 256 nsam 5242880 npoint 214 integ    10 sigma    0.763 bsw 0
Spectrum      9 integration periods
 262.576  264.060  270.455  266.094  266.468  266.269  265.662  264.779  265.418  265.393  266.358  271.118  265.995  266.466  264.734  264.289  265.157  267.766  265.142  270.159  266.216  266.627  265.451  267.333  268.755  267.162  266.598  265.096  269.082  267.541  266.926  266.793  271.573  267.318  266.700  266.908  266.026  265.060  266.580  265.872  270.712  271.611  267.611  266.946  266.457  266.575  267.321  265.548  267.834  271.645  265.984  266.553  266.664  268.849  267.580  266.541  267.208  267.896  269.125  266.692  267.899  268.222  270.783  268.477  267.928  268.061  267.942  268.245  267.245  265.072  272.303  267.272  267.077  266.150  266.696  268.654  266.351  266.586  268.084  273.354  265.973  266.363  267.423  266.527  268.570  268.015  267.395  271.994  266.965  266.955  267.759  268.234  271.014  267.242  268.753  327.060  268.894  269.455  269.557  268.885  272.205  267.774  268.795  269.877  269.414  268.058  269.234  268.959  267.105  274.522  269.547  267.818  268.701  267.461  268.328  268.723  268.843  273.993  267.710  268.684  269.765  269.837  269.685  267.282  266.896  269.177  272.746  269.573  268.592  268.412  270.486  269.119  272.860  267.265  270.353  267.782  268.732  268.167  268.875  269.131  267.700  268.377  267.607  269.503  266.902  269.432  269.958  274.576  268.407  267.948  269.731  267.330  266.826  268.668  268.240  275.236  275.856  268.858  269.248  268.011  268.129  268.901  268.345  269.755  275.361  268.536  269.077  269.037  269.943  268.306  268.266  267.361  269.345  274.290  268.685  268.385  268.537  272.161  269.111  268.237  270.938  272.181  269.572  268.505  268.354  272.745  268.890  269.132  268.916  270.038  270.384  268.401  269.372  267.470  274.045  268.478  268.209  269.183  269.306  268.388  269.371  269.801  273.969  268.162  268.293  269.036  266.333  268.447  268.221  268.860  268.301  274.602  267.163  268.397 
DATE 2017:067:03:02:25 obsn 723 az 179 el 33 freq_MHz  1422.8800 Tsys 231.636 Tant 37.868 vlsr   33.63 glat  0.129 glon 237.618 source G237.5 
Fstart 1421.877 fstop 1423.883 spacing 0.009375 bw    2.400 fbw    2.000 MHz nfreq 256 nsam 5242880 npoint 214 integ    11 sigma    0.724 bsw 0
Spectrum     10 integration periods
 265.828  266.484  274.484  266.582  268.098  269.086  268.133  268.040  266.907  267.053  267.264  274.940  266.423  268.365  266.929  267.153  268.163  269.386  267.374  274.932  269.148  269.198  269.092  270.048  271.233  269.457  266.330  269.355  273.078  267.843  269.503  268.221  275.850  268.295  267.495  267.189  267.760  267.458  268.079  267.174  275.148  275.771  268.652  268.040  268.630  268.718  267.495  266.770  268.203  274.627  268.689  268.438  269.554  270.910  267.816  267.569  270.231  268.734  272.763  268.439  267.856  267.981  274.407  269.035  268.406  268.985  269.115  268.804  267.946  267.682  274.854  267.634  268.951  268.247  265.579  268.103  269.499  268.339  267.619  275.118  267.645  269.173  266.815  270.661  268.410  267.630  268.781  271.256  268.712  267.200  267.324  267.149  271.995  269.292  268.342  298.191  270.928  265.261  267.338  267.723  273.536  268.344  268.449  268.424  267.534  268.012  268.798  268.258  267.690  275.010  269.153  269.792  268.076  268.279  269.403  267.807  269.491  274.525  267.145  268.284  269.015  270.064  269.333  268.486  268.160  267.936  273.467  268.186  266.721  268.201  269.870  267.123  272.545  268.160  270.116  267.605  267.347  266.921  272.004  270.283  269.181  267.953  267.179  267.801  266.837  267.504  266.423  273.470  267.212  267.541  266.681  267.468  267.707  267.821  267.595  272.754  272.796  268.196  267.607  267.911  267.948  268.122  266.277  268.186  272.290  266.606  265.842  266.968  267.008  268.738  268.926  267.511  268.891  272.401  267.532  267.485  268.178  271.407  267.078  267.677  266.456  269.378  267.676  268.241  266.741  270.440  268.195  268.346  267.449  268.066  269.103  267.120  268.167  267.406  271.040  267.536  267.197  268.228  269.252  265.554  267.743  266.505  270.030  267.798  266.336  266.254  266.391  266.970  266.972  266.618  266.808  272.346  266.007  267.357 
DATE 2017:067:03:02:54 obsn 724 az 177 el 29 freq_MHz  1422.8800 Tsys 231.636 Tant 41.488 vlsr   31.28 glat  0.114 glon 242.618 source G242.5 
Fstart 1421.877 fstop 1423.883 spacing 0.009375 bw    2.400 fbw    2.000 MHz nfreq 256 nsam 5242880 npoint 214 integ     1 sigma    2.289 bsw 0
Spectrum      1 integration periods
 268.540  267.286  267.259  269.663  272.835  271.073  271.885  272.925  272.427  270.131  273.181  273.071  271.520  269.904  267.208  272.792  271.167  271.199  274.724  273.000  270.695  271.654  269.711  266.337  273.506  271.660  269.781  272.372  271.402  272.277  272.009  269.690  268.369  266.599  270.466  273.936  272.337  270.941  274.906  271.421  270.535  271.668  266.604  273.219  271.344  272.099  272.707  272.865  271.701  270.900  269.594  267.940  271.023  272.439  277.457  274.709  270.326  271.392  274.623  268.689  271.391  276.146  273.552  276.535  271.827  278.252  267.339  270.161  266.664  273.762  271.908  273.180  272.202  273.555  274.739  274.324  271.677  269.515  270.393  271.810  271.504  269.792  274.185  274.117  275.294  269.958  276.256  274.773  277.031  270.575  271.364  270.682  272.451  272.167  273.560  272.709  275.516  274.323  275.049  275.738  275.156  270.367  275.328  271.106  272.739  264.830  279.072  273.097  272.746  277.906  278.982  271.399  271.841  272.596  274.673  275.718  274.509  270.922  275.641  273.487  276.968  275.402  276.428  273.603  272.638  268.608  265.746  270.937  273.846  272.975  274.800  274.382  280.085  274.776  273.383  275.040  271.598  277.743  273.576  273.234  274.161  267.632  270.786  273.986  273.418  271.437  271.999  273.680  274.426  275.675  271.544  275.305  274.634  273.797  275.024  276.322  278.895  270.394  269.033  269.674  274.277  268.925  271.701  273.454  272.403  273.207  276.102  274.565  271.301  271.954  278.956  271.714  273.348  272.926  274.638  271.211  270.983  273.404  274.175  272.144  271.552  270.291  276.271  269.992  272.398  271.244  275.145  270.463  277.432  274.592  274.198  274.926  269.997  273.028  272.365  273.948  274.401  269.867  276.108  268.883  276.591  274.554  270.293  275.192  272.387  270.013  265.539  270.622  270.754  273.805  272.943  270.813  271.660  273.544 
DATE 2017:067:03:03:15 obsn 725 az 175 el 26 freq_MHz  1422.8800 Tsys 231.636 Tant 40.809 vlsr   30.01 glat  0.107 glon 245.118 source G245.0 
Fstart 1421.877 fstop 1423.883 spacing 0.009375 bw    2.400 fbw    2.000 MHz nfreq 256 nsam 5242880 npoint 214 integ     1 sigma    2.289 bsw 0
Spectrum      1 integration periods
 265.595  266.679  274.745  270.373  268.781  269.573  268.779  269.652  263.655  266.939  267.651  263.888  263.212  271.734  265.707  267.039  270.253  275.173  267.665  265.400  266.814  271.067  273.568  270.940  269.591  271.694  267.004  270.259  264.059  275.997  268.514  268.669  266.773  267.109  268.539  272.235  269.772  276.142  271.428  273.001  269.199  272.016  267.653  271.460  273.225  267.504  274.825  272.513  270.454  267.768  272.006  267.312  270.747  270.409  272.498  279.400  268.554  268.860  272.312  267.281  271.114  270.301  272.732  272.373  276.527  271.428  271.814  271.901  274.205  269.840  270.817  277.452  269.024  270.344  266.180  273.372  269.442  270.650  273.689  270.962  267.862  272.122  270.134  269.322  270.266  271.672  273.317  272.514  272.796  267.633  273.177  269.911  270.081  274.206  269.877  278.803  272.167  267.196  270.948  274.342  278.928  271.939  271.362  270.828  269.727  268.137  275.717  270.810  278.371  276.226  271.974  271.460  274.045  268.874  270.310  274.386  271.354  273.024  269.146  270.445  269.678  271.514  278.836  274.167  272.012  275.141  272.602  268.989  270.751  275.173  277.160  270.525  273.658  271.064  271.397  277.834  278.763  280.242  271.009  271.661  277.280  274.024  276.702  273.844  268.814  275.817  276.687  273.554  270.344  270.300  271.940  274.461  272.924  273.595  272.473  275.068  277.324  275.156  270.070  268.945  276.272  270.210  273.301  273.197  277.095  273.290  269.183  274.852  270.665  273.090  270.250  275.656  275.041  277.742  277.129  269.206  272.760  271.675  273.911  275.180  267.983  269.724  274.791  276.371  273.640  270.573  275.200  275.992  272.431  274.286  268.289  275.842  267.747  274.249  275.321  272.963  272.954  271.451  273.338  269.290  270.789  274.130  273.985  276.267  276.047  272.879  276.402  272.179  271.106  272.180  271.366  276.569  275.478  273.436 
