DATE 2017:067:02:18:33 obsn 626 az  90 el  0 freq_MHz  1422.8800 Tsys 231.636 Tant 398.544 vlsr  -17.22 glat 62.898 glon 303.661 source at_stow
Fstart 1421.877 fstop 1423.883 spacing 0.009375 bw    2.400 fbw    2.000 MHz nfreq 256 nsam 5242880 npoint 214 integ   722 sigma    0.089 bsw 0
Spectrum    661 integration periods
 597.376  602.740  602.578  602.376  605.579  603.916  603.853  605.193  605.648  603.366  600.690  606.185  604.195  602.858  603.422  603.162  606.751  617.874  607.130  612.244  609.974  612.928  615.546  619.137  616.396  614.730  614.715  618.858  619.349  615.087  624.670  611.604  617.153  611.733  610.799  614.461  616.810  614.125  616.473  616.187  613.615  613.827  614.525  615.753  614.490  627.804  625.805  611.787  613.746  613.376  614.306  617.144  614.217  612.398  615.343  615.017  614.434  615.636  621.468  620.294  619.491  631.869  622.240  623.415  623.121  625.389  624.757  624.016  621.561  622.007  624.845  622.663  621.352  621.483  623.892  630.405  623.289  619.836  620.208  629.635  628.252  622.791  621.029  622.407  619.505  620.489  621.005  621.287  619.469  620.062  623.962  622.895  631.491  622.173  624.591  699.011  623.032  624.368  626.982  625.870  627.565  630.606  630.977  631.745  632.475  635.620  634.394  632.813  631.130  635.151  632.753  631.850  632.036  632.240  634.267  630.062  632.058  640.859  638.338  630.971  630.309  632.979  638.322  640.416  632.586  629.401  634.839  629.104  631.205  630.712  633.223  630.231  644.258  633.916  632.619  633.383  636.338  637.364  639.004  638.652  640.619  643.882  642.103  641.537  642.929  643.956  646.037  646.194  644.148  641.378  640.650  640.667  643.664  641.004  640.301  654.174  648.244  640.115  639.069  638.898  641.927  642.023  639.286  640.119  653.589  647.781  639.230  641.137  643.732  643.446  639.913  643.108  641.438  647.034  641.980  643.413  645.346  644.805  643.963  645.696  645.653  646.541  647.997  651.418  650.481  650.133  657.310  648.868  651.399  648.803  647.204  646.272  646.040  644.209  645.803  645.787  644.730  644.326  645.633  647.138  647.351  646.737  648.778  647.097  648.869  647.397  647.218  646.915  646.796  646.719  647.025  652.436  647.540  646.847 
DATE 2017:067:02:21:31 obsn 627 az 335 el  9 freq_MHz  1422.8800 Tsys 231.636 Tant 43.090 vlsr   -7.56 glat  0.014 glon 100.118 source G100.0 
Fstart 1421.877 fstop 1423.883 spacing 0.009375 bw    2.400 fbw    2.000 MHz nfreq 256 nsam 5242880 npoint 214 integ    11 sigma    0.724 bsw 0
Spectrum     10 integration periods
 303.385  304.387  305.850  306.329  307.149  305.666  305.946  306.250  305.990  306.418  306.688  305.832  305.099  305.372  306.591  306.591  305.411  310.329  307.638  306.258  304.565  310.472  308.730  307.464  307.359  308.788  307.670  309.046  307.475  308.094  308.898  306.634  308.835  306.738  308.438  309.045  308.710  308.028  308.486  307.612  308.003  309.152  305.551  307.489  308.472  308.287  309.136  307.704  307.693  309.014  310.008  308.503  307.730  308.189  307.278  308.196  308.440  307.581  309.775  308.599  310.072  311.557  311.748  309.563  310.121  310.442  310.955  308.978  309.686  307.926  308.332  308.908  308.923  305.737  308.646  308.209  309.381  309.036  309.071  308.598  309.071  309.956  309.645  309.425  309.451  308.066  308.855  308.371  308.024  308.343  308.066  307.698  308.525  309.180  308.151  321.177  308.257  308.547  311.412  310.434  309.516  309.408  310.320  309.358  310.996  311.787  311.600  311.983  312.176  311.905  310.500  310.611  309.795  311.746  311.026  311.050  309.541  312.201  311.194  311.422  309.634  311.003  310.330  310.627  308.931  310.336  311.087  309.715  307.586  310.778  310.435  309.336  313.325  311.515  309.889  309.999  310.641  312.680  311.037  309.114  310.613  311.919  310.186  309.951  309.673  309.652  310.436  312.448  310.389  312.174  310.703  311.245  310.375  309.400  310.141  310.560  311.779  309.790  311.633  308.745  311.325  310.728  307.903  309.305  311.565  311.838  310.545  312.077  309.453  311.465  308.328  309.274  308.705  310.603  308.758  310.213  309.686  311.321  311.966  311.641  310.903  309.791  309.812  312.869  311.955  312.723  311.857  311.124  312.353  312.783  310.613  312.479  310.523  311.256  310.397  309.715  311.334  310.167  309.502  310.472  309.690  307.805  311.250  311.512  311.721  311.339  310.871  310.051  310.830  309.413  311.492  310.852  310.881  311.369 
DATE 2017:067:02:21:44 obsn 628 az 335 el  9 freq_MHz  1422.8800 Tsys 231.636 Tant 43.750 vlsr   -7.56 glat  0.014 glon 100.118 source G100.0 
Fstart 1421.877 fstop 1423.883 spacing 0.009375 bw    2.400 fbw    2.000 MHz nfreq 256 nsam 5242880 npoint 214 integ    22 sigma    0.512 bsw 0
Spectrum     20 integration periods
 287.799  288.699  289.066  290.206  290.113  290.238  290.747  289.874  289.307  290.181  289.828  289.009  288.849  289.413  290.015  289.732  289.240  292.893  290.844  289.840  289.408  292.679  291.848  291.037  290.929  291.689  291.431  291.053  291.447  290.788  291.852  290.725  292.001  289.893  291.886  292.213  292.219  291.149  291.023  291.120  291.036  291.746  289.190  290.573  291.726  291.235  291.775  290.879  290.894  290.963  292.070  291.226  291.263  290.951  290.587  291.933  291.953  290.347  292.458  291.126  292.445  294.142  293.224  293.065  293.829  293.306  292.908  291.794  291.916  291.816  291.338  292.212  291.308  289.955  291.779  291.109  291.861  291.880  291.885  290.999  291.800  291.801  291.336  291.790  292.561  290.944  291.696  290.903  290.215  291.189  291.295  291.160  291.264  291.068  290.706  300.440  292.274  291.463  292.741  292.772  292.226  292.399  292.520  292.597  293.029  294.033  293.666  292.885  293.503  293.092  292.348  292.376  292.152  292.760  292.383  293.128  292.173  293.510  292.717  292.720  291.373  292.088  292.286  292.619  290.757  292.433  292.548  292.461  291.412  292.455  293.000  291.037  295.150  292.211  291.985  292.019  292.781  293.475  292.596  291.589  292.861  293.323  292.270  292.562  291.739  292.495  292.934  293.183  292.760  293.262  292.931  292.658  291.535  290.820  291.405  292.777  294.099  292.306  293.059  291.695  292.612  292.335  291.085  291.650  292.483  292.059  291.901  292.640  291.839  292.061  290.899  291.933  290.646  292.698  291.650  292.319  291.752  292.644  293.042  293.144  292.541  292.123  292.012  293.362  293.239  293.069  293.528  292.826  293.444  293.682  291.723  293.388  291.617  292.539  292.072  292.077  292.199  292.119  292.122  292.507  291.513  290.392  292.436  292.024  292.342  292.230  291.797  291.748  292.433  290.813  292.626  291.481  292.199  292.763 
DATE 2017:067:02:21:58 obsn 629 az 335 el  9 freq_MHz  1422.8800 Tsys 231.636 Tant 43.784 vlsr   -7.56 glat  0.014 glon 100.118 source G100.0 
Fstart 1421.877 fstop 1423.883 spacing 0.009375 bw    2.400 fbw    2.000 MHz nfreq 256 nsam 5242880 npoint 214 integ    33 sigma    0.418 bsw 0
Spectrum     30 integration periods
 282.388  283.283  284.282  284.718  284.889  285.140  285.277  284.862  284.016  284.544  284.358  284.022  283.648  284.146  285.466  284.695  284.155  286.922  285.475  284.991  284.491  286.960  286.311  285.623  285.926  285.839  286.376  285.487  286.100  285.281  285.887  285.555  286.343  284.877  286.076  285.969  286.832  286.503  285.175  285.309  285.742  285.985  284.516  285.490  285.871  285.727  286.237  286.120  285.308  285.148  285.930  285.907  285.873  285.804  285.022  286.116  285.743  285.544  286.429  286.062  286.389  288.383  287.233  287.976  288.383  287.755  287.011  286.370  286.322  286.191  286.388  286.359  285.839  284.449  286.585  285.890  286.031  286.167  285.810  285.499  285.917  286.121  286.097  285.437  286.526  285.515  286.313  285.749  284.733  285.949  285.678  285.181  285.764  285.706  285.421  293.317  286.961  286.607  286.956  286.671  286.321  286.542  286.371  286.920  287.760  287.794  287.754  287.161  287.141  287.349  287.136  287.138  286.581  287.520  286.826  287.070  286.686  287.075  287.048  286.729  285.577  286.467  286.574  286.277  285.285  286.817  286.995  286.768  285.901  286.473  287.026  285.797  289.764  286.308  286.140  286.338  286.781  287.230  286.968  286.159  287.040  287.821  286.383  286.857  286.313  286.666  287.427  287.352  286.627  286.747  287.389  286.613  285.941  285.448  285.721  287.062  287.790  286.697  286.294  285.631  286.788  286.672  285.277  286.004  286.792  286.279  285.943  286.659  286.403  285.898  285.028  285.994  285.452  286.842  285.932  286.332  286.065  286.376  287.035  286.684  286.554  286.110  285.824  287.161  286.910  286.521  286.934  287.122  287.381  287.611  286.275  286.968  285.367  286.585  286.504  286.278  285.562  286.370  285.846  286.448  285.869  285.039  285.917  285.881  285.995  285.964  286.079  285.678  286.418  285.249  286.028  286.152  286.040  286.533 
DATE 2017:067:02:22:11 obsn 630 az 335 el  9 freq_MHz  1422.8800 Tsys 231.636 Tant 44.492 vlsr   -7.56 glat  0.014 glon 100.118 source G100.0 
Fstart 1421.877 fstop 1423.883 spacing 0.009375 bw    2.400 fbw    2.000 MHz nfreq 256 nsam 5242880 npoint 214 integ    44 sigma    0.362 bsw 0
Spectrum     40 integration periods
 280.105  281.037  281.863  282.493  282.544  282.457  282.855  282.292  281.644  282.218  282.044  281.782  280.939  281.618  282.609  282.054  281.598  284.180  282.684  282.703  282.246  284.076  283.308  283.337  283.241  283.425  283.808  282.954  283.359  283.017  283.608  283.002  283.704  282.313  283.515  283.633  284.204  283.756  282.652  282.678  283.657  283.108  282.615  282.668  283.362  283.951  283.404  283.067  282.726  282.711  283.814  283.412  283.302  283.068  282.863  283.567  283.230  283.284  283.623  283.052  283.863  285.481  284.457  285.171  285.331  284.715  284.692  283.999  283.650  283.681  283.717  283.608  282.859  282.315  284.172  283.353  283.467  283.431  283.422  282.874  283.199  283.015  283.629  282.907  283.764  282.876  283.527  283.306  282.397  283.158  283.331  282.735  283.484  282.983  282.740  290.196  284.138  283.831  284.082  283.922  283.719  283.790  283.801  284.253  285.023  284.603  284.786  284.319  284.606  284.474  283.881  284.296  283.887  284.750  283.714  284.512  284.091  284.612  284.415  284.081  283.277  283.531  284.009  283.801  282.833  283.850  284.040  283.942  283.181  283.467  284.224  283.350  287.230  283.749  283.383  283.557  283.752  284.461  284.549  283.475  283.998  284.911  283.831  283.903  283.330  283.676  284.328  284.532  284.010  284.187  284.630  283.765  283.203  282.699  283.177  284.358  284.660  283.784  283.719  283.242  284.136  284.334  282.902  283.464  284.124  283.708  283.362  283.758  283.283  283.088  282.345  283.408  282.893  283.936  283.218  283.355  283.348  284.018  284.317  284.229  283.899  283.339  283.382  284.372  284.197  284.179  284.227  284.531  284.693  284.225  283.285  283.963  282.982  283.696  284.095  283.444  282.596  283.515  282.949  283.671  283.303  282.465  283.288  282.670  283.048  282.844  283.283  282.650  283.976  282.394  282.944  283.559  282.981  283.779 
DATE 2017:067:02:23:08 obsn 631 az 315 el 53 freq_MHz  1422.8800 Tsys 231.636 Tant 40.026 vlsr   25.50 glat  0.161 glon 147.617 source G147.5 
Fstart 1421.877 fstop 1423.883 spacing 0.009375 bw    2.400 fbw    2.000 MHz nfreq 256 nsam 5242880 npoint 214 integ     7 sigma    0.935 bsw 0
Spectrum      6 integration periods
 267.780  268.218  270.510  269.200  270.496  269.705  270.524  269.386  269.774  269.057  270.689  269.745  270.475  270.416  267.360  271.321  267.576  270.428  271.382  270.755  269.844  272.441  271.488  271.649  270.881  271.312  272.221  270.799  270.739  269.758  271.578  271.639  270.643  272.757  272.568  270.260  270.740  270.627  271.674  270.380  271.270  269.971  269.123  269.256  271.727  270.704  271.996  270.724  270.935  271.623  270.521  269.527  272.361  270.308  268.241  270.449  270.238  270.811  269.976  268.828  270.813  272.708  273.877  272.825  272.819  272.659  272.060  271.567  270.310  271.454  272.041  272.273  271.324  271.967  271.843  272.102  269.192  270.036  272.069  271.826  270.980  271.501  271.090  269.237  269.846  269.770  268.659  270.113  272.076  270.661  268.337  270.446  270.461  268.640  271.335  275.602  271.066  270.741  272.334  271.422  272.281  271.680  272.282  270.082  271.285  271.688  270.472  268.261  270.250  270.785  269.930  270.748  272.583  272.647  268.849  271.747  272.656  269.319  269.772  271.569  269.681  271.916  272.312  271.699  271.440  271.366  272.379  271.336  271.220  269.305  271.777  269.344  272.789  271.077  271.075  270.683  270.490  271.385  268.274  271.327  274.258  272.220  273.110  273.281  271.247  272.720  272.133  270.234  269.673  271.565  272.585  271.668  271.729  272.192  271.116  271.525  271.782  271.036  271.781  270.010  270.753  271.410  271.341  271.980  273.937  270.988  271.330  272.250  272.170  271.911  271.951  272.222  269.921  270.590  270.883  271.984  271.487  273.025  271.396  271.857  272.298  271.423  272.413  271.924  271.094  271.216  272.387  274.504  274.061  273.801  274.290  273.161  274.091  273.630  273.606  271.769  272.653  272.039  272.791  271.021  271.495  272.001  273.814  270.258  273.309  269.205  271.760  272.316  271.407  268.895  268.908  270.099  272.567  273.505 
DATE 2017:067:02:23:21 obsn 632 az 315 el 53 freq_MHz  1422.8800 Tsys 231.636 Tant 39.567 vlsr   25.50 glat  0.161 glon 147.617 source G147.5 
Fstart 1421.877 fstop 1423.883 spacing 0.009375 bw    2.400 fbw    2.000 MHz nfreq 256 nsam 5242880 npoint 214 integ    17 sigma    0.572 bsw 0
Spectrum     16 integration periods
 266.430  267.617  270.342  268.834  268.936  269.175  269.239  268.487  268.947  269.040  268.452  269.131  269.605  269.482  267.481  269.469  268.382  269.094  269.264  269.087  268.888  270.864  270.709  270.894  269.759  270.655  271.275  270.338  271.464  269.819  271.056  270.494  270.194  271.016  271.273  271.040  270.866  270.979  271.436  270.978  269.873  269.290  268.924  269.635  271.388  270.766  271.348  270.504  270.240  270.537  269.473  269.099  271.518  269.320  268.528  269.059  269.372  270.168  269.777  269.580  268.946  271.228  270.812  271.125  271.630  270.939  270.824  270.156  269.947  269.473  271.007  270.772  270.790  270.736  270.065  270.508  269.201  269.157  269.990  269.721  269.828  270.791  270.682  269.458  269.408  270.122  269.158  269.803  270.547  269.861  269.100  269.660  269.797  269.706  270.253  274.453  270.754  270.191  270.786  270.911  271.434  271.429  271.393  270.876  270.721  270.126  270.053  269.796  270.165  270.459  270.200  271.018  271.594  271.007  269.412  270.920  270.332  269.476  269.795  270.969  271.234  271.235  272.359  270.457  270.792  270.925  272.074  270.801  271.430  270.797  271.106  269.651  271.594  271.022  270.929  270.441  270.256  270.805  270.106  271.098  272.625  272.918  272.065  272.841  272.128  272.577  272.143  271.728  270.768  271.858  272.819  271.578  271.546  271.154  270.667  271.975  271.769  271.526  271.473  269.967  270.031  270.476  270.867  271.138  271.893  270.162  269.698  270.740  271.031  270.238  271.380  271.546  270.023  270.080  270.498  271.610  271.091  271.687  271.996  272.071  271.742  272.211  271.979  270.268  272.149  271.650  272.951  273.838  273.192  273.746  273.186  272.907  273.599  272.703  271.836  272.506  273.424  272.281  272.679  271.404  271.843  272.024  272.649  271.677  272.621  270.569  270.368  271.844  271.945  271.020  269.641  270.326  272.153  271.613 
DATE 2017:067:02:23:57 obsn 633 az 329 el 28 freq_MHz  1422.8800 Tsys 231.636 Tant 39.290 vlsr    7.09 glat  0.083 glon 120.117 source G120.0 
Fstart 1421.877 fstop 1423.883 spacing 0.009375 bw    2.400 fbw    2.000 MHz nfreq 256 nsam 5242880 npoint 214 integ     8 sigma    0.865 bsw 0
Spectrum      7 integration periods
 265.798  265.099  266.812  266.800  267.559  269.068  268.372  267.284  264.943  267.559  267.779  267.906  265.513  269.037  270.931  267.681  266.290  267.252  267.645  267.065  268.627  269.279  269.559  268.980  270.397  269.802  267.580  270.397  271.865  268.555  269.566  267.130  270.005  269.759  271.046  269.995  269.401  269.898  268.830  267.960  268.364  270.461  269.525  270.151  268.630  268.552  268.900  267.165  268.399  268.366  269.633  270.657  269.828  268.430  268.933  267.155  269.922  271.103  269.740  270.916  268.532  268.248  268.191  268.487  269.243  269.971  269.651  269.469  268.348  270.681  270.734  269.305  268.955  268.206  270.106  268.847  269.311  268.324  269.141  269.446  268.481  267.945  269.527  270.055  269.588  269.518  269.288  269.249  270.516  269.553  268.998  269.958  269.349  270.106  270.467  272.399  272.355  271.510  270.321  271.152  270.406  270.854  271.078  268.424  270.408  268.458  272.274  268.490  270.085  270.801  270.073  271.392  272.135  270.307  270.884  271.484  270.416  270.627  271.561  268.884  269.950  271.287  271.684  271.247  270.637  270.678  271.931  272.358  271.132  271.026  271.401  270.599  270.335  269.941  269.292  271.726  270.322  270.869  273.156  271.728  269.901  270.475  273.621  272.720  271.674  272.027  271.669  270.502  270.610  271.282  271.872  272.585  269.237  270.321  271.491  271.481  272.024  271.223  269.502  270.541  270.706  270.116  272.252  272.866  271.102  271.221  271.888  271.193  271.145  272.676  271.358  271.532  271.836  271.704  272.358  272.557  270.449  271.866  271.776  272.471  272.803  272.251  274.063  273.521  272.985  271.576  272.316  270.996  271.938  272.274  273.881  272.487  273.279  273.528  272.397  271.808  270.942  271.881  272.004  271.522  270.862  272.792  273.179  273.149  271.819  273.276  273.055  272.760  271.096  272.828  271.447  272.715  272.789  271.741 
DATE 2017:067:02:24:18 obsn 634 az 328 el 30 freq_MHz  1422.8800 Tsys 231.636 Tant 38.552 vlsr    8.90 glat  0.091 glon 122.617 source G122.5 
Fstart 1421.877 fstop 1423.883 spacing 0.009375 bw    2.400 fbw    2.000 MHz nfreq 256 nsam 5242880 npoint 214 integ     8 sigma    0.865 bsw 0
Spectrum      7 integration periods
 266.138  266.392  267.344  266.104  268.117  267.264  266.078  266.823  267.965  265.772  265.479  266.252  267.555  266.302  268.057  268.225  266.508  267.092  267.871  267.784  268.395  268.339  268.368  270.258  267.767  267.898  268.111  266.427  269.216  268.825  267.446  267.734  268.286  267.675  267.326  267.329  269.247  269.279  267.727  266.505  267.978  267.669  267.606  266.340  268.264  267.136  266.493  267.031  269.425  267.431  267.958  267.296  268.134  268.166  268.733  270.410  268.687  266.728  267.398  266.673  267.841  269.148  267.907  268.203  268.668  267.256  267.980  269.188  268.889  269.057  269.046  269.950  267.756  266.299  267.988  268.458  266.991  267.549  266.945  269.077  267.162  268.512  267.752  268.022  268.244  269.048  268.284  269.732  268.479  268.147  268.748  269.481  267.363  268.380  268.260  267.735  268.663  269.973  270.099  267.648  269.355  268.551  271.744  269.588  269.083  269.243  271.946  269.702  268.039  267.679  270.909  270.995  270.939  270.551  270.020  271.230  270.658  271.011  269.355  269.251  268.227  269.527  269.923  269.788  270.485  270.602  271.117  266.955  271.773  270.183  271.022  269.842  271.261  269.425  270.723  269.250  270.523  271.919  270.972  270.033  270.737  269.975  271.449  271.183  268.970  270.008  269.910  269.346  271.676  271.137  271.166  271.207  269.591  270.845  269.781  272.098  271.780  271.296  270.519  271.658  270.095  270.910  268.932  270.517  271.376  270.388  269.656  270.784  271.264  271.944  271.485  271.713  271.642  271.919  272.967  272.802  272.522  270.096  272.021  272.022  271.735  271.078  272.033  273.181  271.717  272.056  271.645  273.371  271.666  272.535  271.857  270.257  271.805  271.023  272.987  273.802  271.560  271.480  270.594  271.451  272.646  273.232  271.662  270.844  271.912  270.973  270.792  272.113  271.436  269.908  270.776  270.854  271.109  271.582 
DATE 2017:067:02:24:39 obsn 635 az 328 el 32 freq_MHz  1422.8800 Tsys 231.636 Tant 37.478 vlsr   10.69 glat  0.099 glon 125.117 source G125.0 
Fstart 1421.877 fstop 1423.883 spacing 0.009375 bw    2.400 fbw    2.000 MHz nfreq 256 nsam 5242880 npoint 214 integ     8 sigma    0.865 bsw 0
Spectrum      7 integration periods
 264.649  265.332  266.618  266.241  265.971  266.953  267.544  265.472  265.352  266.395  265.470  266.531  263.481  265.786  266.866  266.676  265.580  266.838  265.950  264.743  267.201  267.763  267.304  266.935  265.762  267.985  266.523  267.054  268.360  264.893  266.540  266.555  265.018  265.993  266.962  266.607  265.785  265.870  267.619  266.577  265.452  265.732  265.525  267.085  266.022  265.502  268.125  268.483  268.165  267.440  268.401  265.842  265.537  267.210  266.661  266.481  266.710  267.608  267.097  268.175  266.664  266.488  266.611  267.588  266.132  266.519  266.354  269.210  267.551  267.539  267.613  266.847  267.219  267.153  268.514  266.357  265.995  266.126  268.474  267.846  268.920  265.591  267.734  268.738  267.590  265.835  267.573  268.148  266.762  267.263  268.757  270.465  269.885  268.457  265.706  267.464  267.928  269.143  268.082  267.464  267.291  267.623  268.627  269.447  270.469  268.393  269.850  268.756  269.604  269.637  269.079  269.754  269.789  271.044  269.033  269.498  269.946  268.884  270.029  269.083  268.560  268.164  268.215  270.989  269.814  270.878  270.321  269.669  270.454  268.921  269.082  269.651  269.139  268.311  271.000  270.660  270.808  268.274  270.859  268.566  271.917  270.723  268.815  270.001  271.971  270.054  271.985  270.107  268.286  268.636  270.549  269.478  267.861  270.912  271.879  270.634  269.610  270.601  271.440  271.468  269.733  268.605  269.432  270.057  270.566  267.939  270.233  270.195  269.997  269.278  270.806  272.028  270.273  268.781  271.569  269.159  270.965  270.759  271.433  270.046  273.215  270.659  270.253  269.335  271.936  271.807  271.107  272.047  272.354  272.287  272.898  272.857  270.764  271.125  271.496  269.095  272.989  270.807  272.210  271.916  272.495  271.485  272.548  272.321  271.910  270.835  270.151  271.307  272.020  270.873  271.543  271.759  270.166  270.042 
DATE 2017:067:02:25:16 obsn 636 az 325 el 37 freq_MHz  1422.8800 Tsys 231.636 Tant 39.569 vlsr   14.21 glat  0.114 glon 130.117 source G130.0 
Fstart 1421.877 fstop 1423.883 spacing 0.009375 bw    2.400 fbw    2.000 MHz nfreq 256 nsam 5242880 npoint 214 integ     5 sigma    1.024 bsw 0
Spectrum      5 integration periods
 264.317  266.191  265.974  267.490  266.357  265.825  269.167  267.650  267.099  269.486  266.283  267.444  266.684  266.210  268.430  268.706  267.451  266.858  266.958  267.758  268.791  268.199  267.812  266.700  266.524  269.500  268.351  267.761  266.823  268.263  270.331  269.382  268.584  268.556  268.068  268.384  268.509  268.100  267.547  268.787  269.774  267.586  268.941  270.167  269.569  269.147  267.910  267.752  269.339  268.710  267.920  268.823  268.837  269.947  267.590  269.296  267.149  267.175  269.554  269.015  268.179  270.570  271.567  268.875  269.506  270.150  268.160  267.911  267.816  267.572  267.912  269.625  267.625  267.664  267.457  268.647  267.016  270.251  269.631  267.192  269.167  267.993  270.710  266.728  265.773  270.771  270.887  270.022  269.818  269.223  269.283  268.919  272.621  269.281  270.470  273.348  271.667  270.546  267.878  270.388  268.806  271.874  268.832  269.167  269.977  269.030  270.538  272.293  271.712  271.335  271.838  270.558  273.626  272.128  270.912  272.350  270.304  269.950  271.796  272.380  272.939  271.688  270.506  270.727  271.360  271.679  272.050  271.444  270.368  270.497  273.604  270.797  269.997  270.351  270.584  271.118  269.379  272.846  272.183  271.210  272.954  271.508  269.964  272.123  272.245  272.211  272.026  273.038  272.434  271.160  271.704  272.939  274.125  272.103  273.162  275.146  270.534  269.345  272.349  271.721  272.429  273.804  272.103  271.657  272.722  269.915  272.295  272.694  274.254  273.231  272.046  272.475  273.003  270.332  272.170  272.699  273.664  272.059  272.894  271.334  270.955  272.106  274.234  273.303  274.005  271.417  273.241  274.066  270.828  272.029  270.678  272.456  272.327  272.693  273.268  274.005  273.986  274.009  274.738  274.611  272.890  273.680  272.660  273.406  270.578  272.801  274.058  273.840  272.925  272.421  274.069  274.892  272.047  273.495 
DATE 2017:067:02:25:37 obsn 637 az 324 el 39 freq_MHz  1422.8800 Tsys 231.636 Tant 38.443 vlsr   15.93 glat  0.122 glon 132.617 source G132.5 
Fstart 1421.877 fstop 1423.883 spacing 0.009375 bw    2.400 fbw    2.000 MHz nfreq 256 nsam 5242880 npoint 214 integ     5 sigma    1.024 bsw 0
Spectrum      5 integration periods
 264.070  267.385  267.273  267.570  268.961  267.586  267.170  266.595  265.804  269.293  267.678  267.890  268.598  266.226  265.438  266.939  267.364  266.319  266.645  268.160  266.462  269.669  269.310  268.308  266.134  268.504  269.243  266.991  266.978  266.353  267.804  267.134  267.063  267.436  266.986  269.483  267.337  267.013  269.105  266.733  268.258  267.793  267.948  266.168  267.953  267.050  267.797  267.725  266.895  268.808  264.651  267.878  266.599  268.863  267.761  268.196  268.028  268.141  268.207  269.441  269.446  269.034  268.885  266.907  267.242  268.433  267.669  267.240  269.462  269.229  268.406  267.399  269.455  268.935  267.733  267.949  268.779  265.949  267.343  267.442  268.245  269.920  268.263  267.014  268.379  268.023  268.702  266.683  269.395  268.362  267.736  267.842  268.234  268.656  267.178  269.586  267.116  269.517  268.405  269.953  270.633  270.135  270.032  269.563  268.682  269.357  271.413  268.433  268.183  269.611  269.390  272.433  268.614  271.506  270.157  273.320  269.986  271.260  273.114  270.342  270.066  270.583  270.820  270.837  269.197  270.279  269.549  271.048  268.433  271.789  269.480  269.856  270.682  270.015  267.849  270.513  270.031  272.720  271.445  270.270  270.278  272.332  270.428  269.318  270.107  271.046  271.105  271.328  272.211  269.319  271.145  270.472  271.576  271.321  272.088  272.922  271.464  271.930  269.886  271.168  272.473  272.619  271.906  271.523  271.488  269.695  271.843  269.737  270.365  270.996  271.758  272.241  272.637  269.976  270.179  271.731  270.566  271.142  273.206  272.827  272.680  273.623  271.048  272.281  271.612  272.608  273.347  272.670  271.429  269.547  272.752  270.582  271.299  272.781  271.083  273.057  273.464  271.432  271.518  272.396  272.123  270.968  273.583  272.586  271.166  272.187  271.005  272.053  272.169  272.211  270.813  272.205  271.645  271.095 
DATE 2017:067:02:25:59 obsn 638 az 323 el 41 freq_MHz  1422.8800 Tsys 231.636 Tant 39.152 vlsr   17.62 glat  0.129 glon 135.117 source G135.0 
Fstart 1421.877 fstop 1423.883 spacing 0.009375 bw    2.400 fbw    2.000 MHz nfreq 256 nsam 5242880 npoint 214 integ     7 sigma    0.935 bsw 0
Spectrum      6 integration periods
 267.447  265.905  268.676  266.911  269.853  267.624  267.439  268.320  265.710  266.102  265.379  266.486  266.183  266.232  267.727  266.345  267.217  270.215  266.860  266.805  267.365  269.045  269.113  269.738  270.422  269.655  268.289  270.818  269.468  266.902  270.609  271.295  269.022  268.244  266.409  269.323  269.723  268.937  267.687  270.229  269.401  269.546  267.327  268.640  268.156  269.345  268.914  267.992  267.312  270.118  268.346  267.721  268.541  268.078  268.099  266.781  268.118  269.224  267.962  268.274  268.703  268.353  268.185  268.787  268.987  267.495  269.506  268.376  267.581  268.908  267.438  268.541  268.674  267.484  268.270  270.304  268.637  268.257  267.095  268.913  268.732  268.729  268.536  268.439  268.520  268.075  267.873  269.074  268.419  266.869  270.270  269.429  271.568  269.471  269.219  269.847  268.814  267.869  268.008  270.193  270.505  269.767  268.269  268.950  270.156  271.187  270.049  271.786  269.677  270.887  268.884  270.542  272.584  269.493  270.007  270.731  271.775  270.268  272.007  270.284  268.231  269.097  271.206  269.760  268.967  270.795  270.736  271.363  270.745  268.874  269.565  272.035  272.051  270.202  269.099  270.328  268.914  271.977  269.337  269.634  271.020  271.391  270.350  271.271  271.946  271.672  271.833  271.496  271.850  272.097  271.531  270.527  269.980  271.754  271.791  272.111  272.147  271.785  272.100  271.404  271.976  273.547  273.739  270.614  273.224  270.531  270.056  271.724  273.158  272.788  270.448  270.590  272.081  270.301  271.544  274.256  274.081  272.623  272.816  272.440  272.796  272.456  273.217  271.256  271.379  270.894  272.940  274.324  272.195  273.945  273.665  272.555  274.571  273.428  274.991  273.869  270.739  272.076  272.874  274.379  272.587  273.412  275.009  272.723  273.804  274.371  273.322  272.919  273.984  271.527  270.859  274.113  273.862  273.245 
DATE 2017:067:02:26:20 obsn 639 az 322 el 44 freq_MHz  1422.8800 Tsys 231.636 Tant 40.748 vlsr   19.27 glat  0.136 glon 137.617 source G137.5 
Fstart 1421.877 fstop 1423.883 spacing 0.009375 bw    2.400 fbw    2.000 MHz nfreq 256 nsam 5242880 npoint 214 integ     7 sigma    0.935 bsw 0
Spectrum      6 integration periods
 266.797  269.207  270.845  270.371  268.480  269.549  269.189  270.370  268.404  268.759  267.830  270.852  270.163  267.940  269.090  268.732  269.617  270.377  272.158  270.520  272.098  270.308  271.864  272.298  272.272  271.918  268.512  270.762  272.198  271.951  271.844  270.979  272.836  270.034  271.608  271.226  271.474  271.826  271.223  269.777  269.706  270.814  269.711  269.866  269.721  270.022  270.106  269.549  270.007  270.669  269.813  269.954  268.831  269.856  270.098  271.803  269.059  269.456  269.984  270.571  270.432  272.108  270.091  271.154  271.444  271.702  270.774  272.531  271.040  271.193  270.447  270.094  271.468  270.167  271.409  270.945  271.133  270.835  271.140  271.785  271.560  270.583  270.836  271.492  271.056  270.927  269.389  272.855  269.917  271.095  272.036  272.498  271.802  269.886  270.622  275.847  271.498  271.784  271.985  273.425  272.564  270.890  271.623  271.122  271.272  273.953  274.490  271.833  272.654  271.332  270.814  273.223  273.317  271.652  273.011  274.533  270.939  272.439  272.535  271.298  272.525  272.404  271.502  274.019  272.960  271.476  274.491  272.097  272.893  273.516  273.259  271.778  275.265  271.590  273.695  274.250  273.194  274.115  273.962  274.581  270.177  272.566  275.053  272.521  272.576  273.995  273.202  274.679  274.984  273.557  273.763  274.002  274.491  274.498  272.612  274.013  274.799  274.423  275.463  275.083  272.919  273.586  272.989  272.638  274.965  272.280  273.903  274.095  274.040  271.233  274.503  274.386  275.028  272.098  275.821  275.150  274.584  275.646  276.582  274.373  276.082  276.003  274.552  275.729  274.855  275.822  276.017  275.983  274.286  275.030  276.059  274.626  276.752  275.917  276.061  275.692  275.683  273.690  277.638  275.964  277.750  276.581  278.274  276.536  275.246  276.241  273.482  275.586  276.688  274.728  276.100  276.640  274.658  274.334 
DATE 2017:067:02:26:41 obsn 640 az 320 el 46 freq_MHz  1422.8800 Tsys 231.636 Tant 41.881 vlsr   20.89 glat  0.142 glon 140.117 source G140.0 
Fstart 1421.877 fstop 1423.883 spacing 0.009375 bw    2.400 fbw    2.000 MHz nfreq 256 nsam 5242880 npoint 214 integ     8 sigma    0.865 bsw 0
Spectrum      7 integration periods
 267.718  268.160  270.572  270.854  271.914  270.884  270.073  267.932  269.897  271.108  269.627  269.973  269.403  267.678  268.692  270.843  269.835  269.544  267.747  269.703  270.788  269.670  270.081  270.121  272.559  270.034  269.540  268.435  269.186  267.781  269.859  268.082  268.237  270.166  271.225  270.613  269.526  270.999  268.591  268.736  270.772  271.064  270.891  271.219  272.707  270.460  272.068  271.813  270.504  272.052  270.484  271.807  273.316  272.890  272.558  272.789  271.874  271.071  271.491  273.751  272.672  271.078  271.499  273.092  272.491  271.143  271.287  271.681  270.678  272.127  273.397  270.416  269.491  271.781  271.318  270.017  269.362  269.127  268.885  271.865  272.292  270.940  270.993  270.111  269.265  271.512  270.849  271.726  272.931  269.973  271.570  271.151  272.694  273.762  273.206  274.401  272.185  272.633  273.553  274.207  274.553  272.320  273.488  275.119  273.227  274.875  273.967  272.134  274.162  274.476  272.760  274.704  275.545  273.069  275.329  273.427  271.675  273.060  272.641  272.873  272.431  274.200  273.776  274.354  274.441  273.156  275.204  273.676  271.398  271.169  273.348  272.775  272.179  271.781  272.221  271.200  270.840  274.464  275.009  272.022  273.215  273.917  273.296  273.091  274.900  274.300  273.748  277.361  275.416  275.767  275.440  273.150  274.075  273.907  275.238  275.927  277.978  274.988  275.957  276.654  276.240  273.920  275.394  274.714  275.660  273.909  274.048  274.884  273.134  275.328  275.315  274.656  275.690  276.015  275.061  273.981  273.964  274.484  275.557  274.382  276.227  276.137  276.936  275.901  275.695  274.859  276.443  275.265  274.777  272.429  275.152  275.713  273.173  275.680  272.062  274.127  274.681  274.497  275.477  274.763  274.860  275.578  276.545  274.874  275.482  275.121  277.403  277.268  276.868  275.724  276.924  275.761  277.727  275.755 
DATE 2017:067:02:27:02 obsn 641 az 319 el 48 freq_MHz  1422.8800 Tsys 231.636 Tant 43.946 vlsr   22.47 glat  0.149 glon 142.617 source G142.5 
Fstart 1421.877 fstop 1423.883 spacing 0.009375 bw    2.400 fbw    2.000 MHz nfreq 256 nsam 5242880 npoint 214 integ     8 sigma    0.865 bsw 0
Spectrum      7 integration periods
 270.476  270.318  272.867  272.242  272.392  273.893  274.460  273.937  273.457  271.452  271.709  270.927  272.676  269.751  271.510  271.076  271.324  272.706  272.051  275.681  272.863  274.443  273.441  271.855  272.335  272.305  274.676  275.121  274.773  274.489  272.343  272.954  272.035  272.625  270.209  271.411  270.787  270.820  272.081  270.777  272.511  270.874  272.956  272.955  272.871  273.931  272.154  275.465  275.124  276.272  274.482  274.305  275.226  275.406  276.753  276.180  275.256  276.540  279.753  275.005  277.309  275.548  276.099  276.166  274.498  275.987  274.789  275.413  275.953  275.397  276.144  274.296  275.156  275.304  276.791  275.849  274.784  274.347  274.961  274.637  274.639  273.633  274.416  273.912  274.799  272.893  273.111  273.625  273.322  274.604  273.060  273.840  275.768  273.455  274.609  276.803  275.738  275.288  274.057  276.530  277.437  276.508  277.777  276.580  277.030  277.084  278.970  279.052  278.650  279.381  278.574  278.902  278.235  277.579  278.508  277.775  278.991  278.333  278.004  277.566  278.233  275.016  277.461  277.987  277.257  276.750  278.070  278.103  275.806  276.527  275.668  276.163  275.428  274.400  276.070  273.904  275.294  274.913  275.371  275.206  275.524  276.949  275.951  275.129  276.240  277.874  273.826  277.699  275.525  277.339  277.398  277.454  277.174  277.848  279.145  279.892  278.939  279.578  280.762  279.439  282.119  278.933  279.531  277.693  278.574  277.396  276.947  278.933  279.715  277.469  280.203  278.572  277.473  280.611  279.642  279.930  281.375  283.081  280.717  282.209  279.997  281.355  281.358  281.525  282.436  280.644  279.555  281.375  280.033  279.919  279.641  278.786  278.477  278.377  275.161  277.715  275.556  277.310  277.668  274.615  274.916  277.259  279.055  277.225  276.626  278.289  277.309  278.347  280.218  278.525  280.815  279.028  278.635  278.881 
DATE 2017:067:02:27:23 obsn 642 az 317 el 50 freq_MHz  1422.8800 Tsys 231.636 Tant 39.036 vlsr   24.01 glat  0.155 glon 145.117 source G145.0 
Fstart 1421.877 fstop 1423.883 spacing 0.009375 bw    2.400 fbw    2.000 MHz nfreq 256 nsam 5242880 npoint 214 integ     9 sigma    0.809 bsw 0
Spectrum      8 integration periods
 267.167  267.763  269.157  267.497  268.243  267.495  268.421  267.085  268.075  268.005  268.858  266.455  267.686  269.040  268.163  267.916  268.608  268.860  270.026  269.434  269.066  270.608  270.182  269.615  270.918  268.622  267.503  269.403  270.222  269.973  269.038  268.792  270.880  271.052  268.450  268.439  269.189  268.077  267.191  268.576  268.802  269.320  266.407  268.127  268.369  269.882  267.230  269.200  268.627  268.209  269.604  268.530  269.782  270.372  269.569  267.542  268.402  270.608  268.560  266.732  268.226  268.348  269.388  270.769  268.913  269.099  268.743  269.368  268.098  268.221  269.205  268.600  269.119  269.233  268.964  268.555  270.691  267.851  269.632  269.603  269.542  269.741  270.198  270.423  268.473  270.557  268.084  269.759  269.723  269.223  268.275  267.408  268.056  270.672  269.393  273.420  270.773  268.261  268.267  268.872  268.150  270.606  269.725  269.861  270.947  271.369  269.978  270.027  270.169  271.355  271.473  270.970  271.284  270.377  271.349  270.636  269.349  272.011  273.336  272.277  270.527  271.097  270.217  269.757  270.683  270.372  271.710  270.388  270.404  270.157  271.852  271.511  271.373  268.698  270.021  270.397  271.643  270.144  271.107  271.353  271.175  272.080  270.587  270.035  270.814  269.592  271.506  271.827  268.585  268.908  273.141  270.021  271.529  271.394  272.703  271.434  271.486  270.814  272.106  270.890  272.430  270.292  269.995  270.101  271.363  269.828  271.274  271.410  270.534  270.874  271.859  272.498  270.032  270.882  273.222  271.029  271.902  272.478  272.890  272.922  274.360  272.484  273.213  274.203  272.335  275.120  272.072  273.841  273.128  273.097  273.163  273.218  272.644  273.514  273.419  273.316  272.544  272.565  270.799  270.013  271.650  271.406  272.490  270.357  271.299  270.931  269.329  270.589  271.583  271.893  270.652  271.718  272.272  272.473 
DATE 2017:067:02:27:44 obsn 643 az 315 el 52 freq_MHz  1422.8800 Tsys 231.636 Tant 39.163 vlsr   25.50 glat  0.161 glon 147.617 source G147.5 
Fstart 1421.877 fstop 1423.883 spacing 0.009375 bw    2.400 fbw    2.000 MHz nfreq 256 nsam 5242880 npoint 214 integ     9 sigma    0.809 bsw 0
Spectrum      8 integration periods
 265.240  268.320  268.256  267.964  268.961  268.127  269.378  268.668  266.450  267.445  268.477  267.976  268.480  267.652  268.238  267.161  267.681  268.002  268.632  268.987  269.698  270.115  270.113  269.248  267.037  272.670  270.741  270.030  270.875  271.493  271.096  269.935  271.932  271.603  269.695  269.643  270.174  271.089  269.746  271.504  271.704  267.666  269.602  268.020  270.085  270.213  268.517  270.212  271.649  268.547  269.639  267.662  269.132  269.369  270.013  268.648  270.908  270.199  268.882  268.979  269.172  270.834  268.979  270.871  269.930  269.086  269.496  268.547  271.697  269.059  268.442  268.860  268.564  269.203  271.489  269.803  268.749  269.940  270.121  269.762  270.530  269.735  268.591  270.798  270.765  269.096  272.273  271.577  269.963  270.660  270.414  270.740  271.429  270.026  271.320  280.042  269.484  270.191  270.111  271.509  269.103  270.554  271.739  269.693  270.852  268.971  269.643  270.507  269.565  269.998  270.098  268.529  270.965  271.317  269.619  270.596  269.398  270.937  269.827  269.156  269.655  268.387  269.853  271.343  269.422  270.504  270.973  270.003  270.994  269.901  271.776  271.465  272.220  270.122  270.917  268.820  271.177  269.324  271.786  272.070  270.135  273.522  270.969  272.261  270.918  270.504  271.946  272.788  271.284  273.019  271.311  272.076  271.624  271.832  271.512  272.027  269.984  270.295  272.223  270.635  271.075  271.334  269.519  270.443  271.677  272.218  270.291  270.539  270.253  270.589  271.408  268.782  272.091  270.330  271.724  270.931  272.027  272.204  272.616  271.761  270.898  273.123  273.011  273.108  275.702  273.073  273.105  272.082  274.459  271.400  273.993  272.120  272.961  272.643  272.742  272.568  274.009  271.562  272.891  272.706  273.282  274.728  273.571  272.057  271.450  271.613  269.349  270.178  271.659  271.068  273.124  270.691  270.554  271.340 
DATE 2017:067:02:28:05 obsn 644 az 313 el 55 freq_MHz  1422.8800 Tsys 231.636 Tant 40.857 vlsr   26.94 glat  0.166 glon 150.117 source G150.0 
Fstart 1421.877 fstop 1423.883 spacing 0.009375 bw    2.400 fbw    2.000 MHz nfreq 256 nsam 5242880 npoint 214 integ    10 sigma    0.763 bsw 0
Spectrum      9 integration periods
 266.672  268.977  270.356  269.504  270.625  270.962  270.267  269.905  268.136  269.038  268.285  267.903  269.208  268.763  269.100  269.084  270.389  270.628  267.913  271.452  269.607  269.049  270.154  270.952  270.263  271.163  270.953  270.062  271.458  270.416  272.965  270.241  270.806  271.150  270.060  270.532  269.856  270.731  271.148  270.071  270.483  270.936  269.768  270.759  271.154  270.300  271.773  270.797  270.248  269.689  269.854  269.899  271.626  270.905  271.694  268.918  271.286  270.705  271.544  270.962  271.035  270.375  270.413  270.859  270.982  270.493  271.265  270.938  271.393  270.696  270.722  270.695  269.589  271.393  270.851  270.730  269.367  270.050  272.141  271.291  270.156  270.610  271.623  271.159  270.819  271.420  270.382  272.219  270.314  270.268  271.356  273.037  272.113  271.410  271.756  273.377  270.786  273.173  271.115  272.150  271.413  272.749  272.493  271.114  272.336  272.693  271.309  271.336  272.337  271.877  272.162  272.598  272.362  272.250  273.132  272.119  273.516  271.680  270.500  272.730  271.651  270.887  272.214  273.003  271.868  272.004  273.161  271.729  271.219  272.083  271.930  270.431  271.035  272.283  270.296  271.588  272.152  272.313  272.253  273.696  273.593  273.776  272.281  273.537  271.697  272.764  273.076  273.457  272.366  273.959  275.917  272.919  273.553  274.033  273.507  273.958  272.996  273.732  274.473  273.529  274.658  273.587  273.344  273.676  272.982  272.565  270.807  271.538  272.298  272.295  273.112  272.390  273.580  272.179  273.290  272.760  273.749  272.405  272.715  271.662  272.121  272.934  272.470  272.826  272.993  273.068  271.417  274.093  271.175  271.918  272.199  272.171  272.050  272.701  272.093  273.779  274.164  272.923  271.260  270.174  273.051  273.510  272.621  271.958  273.881  273.598  273.376  273.192  273.574  272.106  272.991  274.167  274.882  272.001 
DATE 2017:067:02:28:27 obsn 645 az 311 el 57 freq_MHz  1422.8800 Tsys 231.636 Tant 39.611 vlsr   28.33 glat  0.171 glon 152.617 source G152.5 
Fstart 1421.877 fstop 1423.883 spacing 0.009375 bw    2.400 fbw    2.000 MHz nfreq 256 nsam 5242880 npoint 214 integ    10 sigma    0.763 bsw 0
Spectrum      9 integration periods
 266.834  267.267  270.715  271.359  269.380  268.996  269.741  269.269  269.559  268.028  268.063  269.204  267.362  267.784  268.600  269.191  267.877  268.333  269.950  268.945  269.931  270.247  271.122  269.741  269.175  270.507  269.501  269.438  269.425  270.938  268.554  269.018  269.823  268.943  269.116  269.992  269.075  270.085  269.393  269.192  269.845  269.560  268.773  269.902  269.596  269.994  268.282  269.356  269.702  269.479  270.970  270.690  268.736  270.212  269.554  269.420  269.746  269.782  270.512  269.374  271.191  270.406  270.736  269.940  270.518  270.379  270.849  270.817  271.393  270.106  270.841  269.156  270.646  269.803  269.298  268.787  269.698  269.555  268.611  268.434  270.085  270.297  268.234  269.580  268.925  269.343  270.192  269.234  271.656  268.915  269.047  270.057  268.490  269.025  269.505  272.025  270.615  270.405  270.903  271.223  270.841  271.392  270.980  271.597  271.198  271.632  271.302  271.175  272.773  271.342  272.704  272.301  273.022  272.528  271.024  272.905  273.675  273.004  271.618  272.248  272.648  271.389  271.518  272.585  272.033  272.081  271.633  270.827  271.682  272.402  270.423  272.239  273.168  271.091  271.345  272.755  271.112  271.309  271.229  271.315  271.003  271.979  270.860  270.720  271.812  270.927  271.157  270.981  272.104  271.902  272.474  271.845  272.099  273.071  272.787  272.581  272.767  272.845  272.172  270.916  272.310  273.732  273.193  273.048  273.869  270.896  272.917  274.484  272.973  272.880  273.564  272.542  271.508  270.955  273.112  272.387  273.780  272.288  272.284  272.522  272.103  270.980  272.759  272.700  271.739  271.133  272.476  272.569  271.877  270.684  270.634  270.569  270.418  271.342  272.027  270.685  270.744  272.141  272.261  270.005  271.670  271.680  271.288  272.218  271.116  272.112  270.873  271.094  271.128  272.405  270.291  271.748  271.386  271.798 
DATE 2017:067:02:28:48 obsn 646 az 308 el 59 freq_MHz  1422.8800 Tsys 231.636 Tant 40.459 vlsr   29.67 glat  0.176 glon 155.117 source G155.0 
Fstart 1421.877 fstop 1423.883 spacing 0.009375 bw    2.400 fbw    2.000 MHz nfreq 256 nsam 5242880 npoint 214 integ    11 sigma    0.724 bsw 0
Spectrum     10 integration periods
 267.797  269.394  269.599  269.033  269.483  270.772  270.707  269.906  269.300  269.488  269.362  270.426  270.145  272.067  268.604  270.399  269.899  270.467  270.774  270.627  271.067  270.276  272.064  270.909  271.488  271.300  270.439  271.014  268.651  269.389  270.511  269.547  270.851  270.212  270.485  270.099  271.551  270.313  269.885  270.268  270.590  271.640  270.283  269.476  268.527  270.968  270.057  269.949  270.538  269.526  268.745  269.437  269.535  269.113  269.868  269.969  272.623  271.167  271.722  272.410  270.542  270.372  271.111  269.308  271.528  270.726  270.005  270.542  269.608  270.929  270.646  270.583  271.686  269.979  270.746  272.105  271.890  269.723  270.185  270.752  270.331  271.563  270.019  269.876  271.257  269.899  271.056  270.501  270.958  270.864  270.751  270.459  269.713  269.897  270.868  273.237  271.527  272.371  271.397  271.269  270.733  272.655  272.028  271.811  271.157  270.963  272.367  271.303  270.747  271.638  272.387  272.121  271.330  271.550  271.201  271.640  271.063  273.239  272.100  271.895  271.487  271.217  272.740  270.282  271.273  272.069  272.076  272.238  271.832  272.037  271.453  271.123  275.640  271.992  272.203  272.274  271.026  272.768  272.262  270.880  271.432  272.395  270.794  272.818  273.731  272.100  273.931  272.443  271.654  272.735  274.065  271.116  271.795  271.557  270.721  271.674  273.027  272.405  271.791  272.428  272.636  272.902  272.529  271.201  273.029  271.839  272.204  273.582  272.311  274.251  273.652  272.911  273.249  273.207  271.610  274.212  273.130  273.137  274.237  273.489  274.077  274.196  273.421  274.239  273.759  273.736  274.300  273.004  273.965  275.113  271.837  271.709  271.765  272.795  271.886  272.613  272.931  271.439  272.870  274.291  271.144  271.862  271.925  272.728  272.823  272.461  273.035  272.856  271.287  271.643  273.100  273.045  273.133  273.204 
DATE 2017:067:02:29:09 obsn 647 az 305 el 61 freq_MHz  1422.8800 Tsys 231.636 Tant 43.055 vlsr   30.95 glat  0.180 glon 157.617 source G157.5 
Fstart 1421.877 fstop 1423.883 spacing 0.009375 bw    2.400 fbw    2.000 MHz nfreq 256 nsam 5242880 npoint 214 integ    11 sigma    0.724 bsw 0
Spectrum     10 integration periods
 276.128  278.654  279.041  280.153  279.104  281.364  279.923  278.006  278.967  277.155  278.030  277.904  278.177  277.332  279.286  278.477  278.063  278.874  277.616  277.698  279.905  277.269  278.107  277.994  279.427  279.336  278.083  278.008  278.575  278.390  279.280  280.361  279.970  278.743  280.173  279.339  277.489  279.354  279.052  278.568  279.379  278.740  279.028  279.843  278.002  279.079  278.528  278.453  280.063  278.091  277.026  278.074  277.451  278.715  278.910  278.471  279.354  276.915  277.041  277.973  279.631  279.355  278.253  278.380  280.858  279.542  278.980  279.019  278.009  278.031  278.800  279.268  277.854  277.642  278.474  278.917  278.169  278.229  279.113  279.334  277.239  278.497  277.358  277.901  277.437  277.669  277.531  278.362  277.273  277.707  276.546  277.796  277.847  277.672  277.900  281.536  278.362  277.015  278.799  276.677  277.680  278.634  277.796  277.723  277.230  276.599  278.689  278.214  277.394  279.715  278.788  279.895  277.617  278.341  277.875  277.670  276.493  279.274  276.798  278.240  278.712  278.111  278.298  277.387  278.034  277.329  278.917  277.783  277.532  277.402  276.400  277.136  281.152  277.207  277.793  276.642  276.006  275.603  277.692  277.749  278.004  276.470  276.581  277.101  276.941  277.997  277.463  275.033  275.699  276.902  276.382  276.739  277.150  276.085  276.894  276.733  279.175  275.198  276.046  277.159  275.948  277.026  276.818  276.954  279.249  277.649  275.835  278.427  277.974  276.532  275.117  277.281  277.685  277.371  277.309  277.012  277.351  277.499  278.557  277.276  276.609  277.528  278.100  277.558  278.432  277.962  278.566  278.732  277.325  277.496  278.794  278.963  276.316  277.612  275.833  276.251  277.370  277.098  277.660  274.751  276.409  276.618  275.646  277.471  276.815  276.800  276.767  276.855  276.127  276.201  276.649  275.849  275.545  277.600 
DATE 2017:067:02:29:38 obsn 648 az 298 el 64 freq_MHz  1422.8800 Tsys 231.636 Tant 42.690 vlsr   33.33 glat  0.188 glon 162.617 source G162.5 
Fstart 1421.877 fstop 1423.883 spacing 0.009375 bw    2.400 fbw    2.000 MHz nfreq 256 nsam 5242880 npoint 214 integ     1 sigma    2.289 bsw 0
Spectrum      1 integration periods
 267.723  272.301  274.043  278.439  270.337  275.999  271.599  270.074  270.008  269.838  268.553  274.211  270.830  267.126  272.149  272.495  273.852  276.741  275.329  275.221  274.784  270.153  273.042  271.176  273.595  274.983  277.376  272.996  269.236  271.356  272.732  266.233  275.254  272.937  270.494  273.663  272.990  270.371  275.158  268.947  272.904  278.199  270.507  274.663  272.035  275.597  275.681  272.545  269.120  276.046  268.697  274.037  277.612  273.618  272.968  273.123  276.691  280.548  276.596  272.693  277.464  271.804  274.484  274.151  271.668  275.176  275.363  269.311  276.304  273.712  271.315  277.933  273.690  271.929  276.208  276.545  279.710  270.205  277.644  272.103  273.514  273.783  273.712  280.192  269.856  275.037  271.127  277.930  275.743  268.142  273.854  275.866  273.595  270.582  273.785  280.493  273.695  276.228  272.330  275.198  277.506  275.080  272.965  274.966  273.905  277.485  274.738  273.833  267.455  275.711  268.613  272.319  271.405  272.800  273.271  274.904  272.425  271.633  272.374  275.851  269.233  277.745  279.441  274.570  278.893  269.370  276.609  277.268  269.772  273.912  274.410  273.788  271.712  276.147  272.116  275.558  273.242  275.449  277.724  275.150  273.061  272.693  274.364  273.889  270.974  276.928  280.457  272.163  272.625  272.633  272.786  275.736  273.825  277.285  276.492  274.293  274.573  273.585  272.748  272.042  275.975  272.731  273.615  269.565  279.249  278.003  271.575  273.915  271.566  277.833  268.721  268.996  270.465  277.893  267.469  273.042  275.618  276.675  280.672  270.081  273.131  270.032  278.291  271.564  274.398  277.740  277.373  274.288  273.914  273.288  277.543  272.071  271.719  272.937  276.967  271.947  272.501  278.230  271.688  272.210  274.609  271.413  272.395  278.055  272.901  276.412  272.856  270.164  273.495  278.464  273.683  279.278  274.687  272.861 
DATE 2017:067:02:29:59 obsn 649 az 294 el 66 freq_MHz  1422.8800 Tsys 231.636 Tant 45.324 vlsr   34.43 glat  0.192 glon 165.117 source G165.0 
Fstart 1421.877 fstop 1423.883 spacing 0.009375 bw    2.400 fbw    2.000 MHz nfreq 256 nsam 5242880 npoint 214 integ     1 sigma    2.289 bsw 0
Spectrum      1 integration periods
 272.551  274.648  276.199  276.182  278.588  275.567  278.209  276.721  281.033  282.138  280.273  275.452  274.981  276.773  276.642  280.855  280.642  280.600  277.293  280.636  278.891  274.017  280.700  278.853  276.178  282.074  275.204  271.392  270.586  276.440  281.369  277.594  275.620  280.060  273.010  278.457  270.892  275.398  275.612  280.177  275.959  276.475  277.588  273.711  276.077  275.181  274.212  275.309  276.389  274.887  271.543  275.677  280.291  278.506  274.009  277.806  275.936  274.611  278.797  276.068  280.885  280.382  282.529  275.688  278.546  277.164  275.722  277.278  274.108  280.979  273.920  275.659  278.232  274.490  279.882  277.466  280.144  279.663  281.439  271.472  272.694  274.392  275.811  274.360  273.182  280.439  271.194  273.144  276.342  276.766  275.834  274.070  275.359  270.799  275.887  275.007  278.161  275.513  278.697  273.353  272.174  275.396  277.386  271.196  271.573  277.698  275.184  272.961  273.961  279.951  280.664  278.202  275.267  274.324  274.555  275.569  273.797  279.891  276.296  277.206  281.044  279.961  281.925  277.614  273.260  276.579  274.598  276.323  271.101  280.696  273.601  274.757  278.348  277.933  275.392  275.824  276.741  280.212  275.252  279.051  274.800  276.337  277.570  275.962  270.057  278.575  275.994  278.147  276.984  273.675  273.652  272.028  270.199  275.963  277.607  273.099  280.673  278.289  277.935  277.179  279.038  283.413  277.088  273.822  273.704  274.576  276.918  279.073  278.058  273.520  274.941  278.628  273.107  278.442  273.690  277.385  277.082  278.496  275.133  269.764  279.887  274.704  273.240  281.438  278.515  277.834  282.055  277.236  276.102  273.599  277.293  277.984  278.066  279.634  278.997  272.035  276.778  275.869  279.881  272.756  276.852  273.823  270.803  274.467  275.189  277.243  274.852  273.915  274.554  277.293  276.405  279.423  276.351  272.527 
DATE 2017:067:02:30:20 obsn 650 az 289 el 68 freq_MHz  1422.8800 Tsys 231.636 Tant 47.379 vlsr   35.46 glat  0.195 glon 167.617 source G167.5 
Fstart 1421.877 fstop 1423.883 spacing 0.009375 bw    2.400 fbw    2.000 MHz nfreq 256 nsam 5242880 npoint 214 integ     2 sigma    1.619 bsw 0
Spectrum      2 integration periods
 273.233  277.850  279.932  277.649  278.958  279.956  279.994  276.539  277.842  273.748  277.429  276.244  274.281  278.126  275.173  274.991  278.058  279.039  275.304  278.264  278.709  279.505  275.701  276.997  277.136  278.027  279.165  279.363  277.185  277.009  280.436  278.970  279.460  278.038  276.200  279.345  281.023  277.330  279.405  283.079  278.196  277.785  277.436  276.312  277.681  281.803  276.140  277.045  279.412  278.674  274.968  276.766  275.608  276.184  274.979  277.249  276.542  275.688  276.320  274.916  277.695  276.433  276.588  282.188  279.794  279.899  276.566  278.345  280.748  277.755  279.636  275.234  276.521  275.593  276.496  280.116  279.427  277.376  275.473  275.805  276.756  277.471  275.372  277.709  276.867  277.045  275.158  277.289  277.282  276.708  278.697  278.272  279.452  277.150  278.094  280.001  280.977  276.296  280.444  277.412  279.405  278.827  278.686  276.137  277.573  277.594  276.366  281.431  279.861  279.825  279.802  273.696  281.294  278.200  278.997  275.437  280.501  277.365  279.085  278.033  277.797  273.059  279.369  277.663  278.195  277.304  279.290  283.136  280.182  280.402  281.619  276.687  277.339  279.926  278.827  276.199  276.337  274.228  276.505  281.046  278.405  280.139  280.032  277.001  278.902  277.324  278.851  276.896  279.532  281.546  278.943  275.895  277.107  277.016  281.169  278.932  279.236  282.357  278.151  279.959  279.309  276.990  277.904  277.093  278.469  278.980  277.044  273.028  278.210  275.392  277.816  281.635  279.480  281.386  278.196  279.624  280.671  279.514  282.146  278.252  279.299  282.492  282.128  279.524  281.949  282.056  281.582  281.403  279.454  280.776  280.634  280.366  280.579  279.735  279.451  279.620  278.562  281.006  281.268  279.029  277.335  278.263  278.633  279.636  277.077  281.879  278.621  277.745  277.259  283.020  278.294  279.920  278.791  277.336 
DATE 2017:067:02:30:41 obsn 651 az 284 el 69 freq_MHz  1422.8800 Tsys 231.636 Tant 45.531 vlsr   36.42 glat  0.198 glon 170.117 source G170.0 
Fstart 1421.877 fstop 1423.883 spacing 0.009375 bw    2.400 fbw    2.000 MHz nfreq 256 nsam 5242880 npoint 214 integ     2 sigma    1.619 bsw 0
Spectrum      2 integration periods
 271.282  272.802  271.836  277.181  274.725  273.633  273.124  272.049  274.692  270.599  272.070  271.343  277.312  274.700  271.268  275.023  276.112  276.888  272.013  275.299  272.003  274.302  274.898  274.143  275.986  273.319  275.089  270.668  275.951  274.748  274.690  276.193  276.507  277.130  274.745  277.201  275.250  272.696  275.410  274.634  272.680  271.549  275.044  272.640  272.200  274.115  275.587  273.160  274.821  276.883  276.750  274.638  275.586  273.111  273.147  273.370  276.618  271.570  272.919  276.594  275.114  276.356  275.118  273.937  274.254  274.646  276.260  278.881  277.194  273.505  274.092  275.857  276.236  273.344  272.771  277.234  278.253  275.028  273.801  278.241  278.549  278.067  273.725  275.794  276.853  273.351  275.379  277.183  275.555  275.519  273.266  276.878  279.189  276.518  273.828  278.791  275.470  276.133  276.945  275.912  276.880  277.743  279.521  279.584  280.333  274.801  277.818  274.440  274.012  274.147  275.869  278.827  277.498  277.938  276.152  276.358  278.061  276.052  278.484  278.734  277.735  278.975  275.999  275.976  279.127  279.021  277.581  277.142  274.653  280.411  277.538  277.380  285.026  277.829  277.158  278.546  274.082  274.301  273.703  279.051  276.983  278.302  275.227  279.780  278.477  279.441  278.977  280.469  278.052  275.245  278.923  275.550  280.808  276.167  278.750  281.278  274.524  276.141  276.993  276.904  277.242  278.774  278.617  277.697  276.538  279.845  279.694  273.029  278.656  278.042  279.889  280.266  277.529  276.693  278.442  275.711  280.549  279.506  278.213  277.207  277.620  278.781  280.080  280.140  279.805  282.800  277.071  276.320  278.570  275.336  281.250  278.682  279.583  277.065  274.774  278.207  279.144  277.684  282.820  279.397  277.601  276.617  279.802  279.564  277.391  279.252  281.323  280.363  277.560  280.650  277.736  281.612  279.237  275.114 
DATE 2017:067:02:31:11 obsn 652 az 277 el 70 freq_MHz  1422.8800 Tsys 231.636 Tant 50.700 vlsr   37.32 glat  0.200 glon 172.617 source G172.5 
Fstart 1421.877 fstop 1423.883 spacing 0.009375 bw    2.400 fbw    2.000 MHz nfreq 256 nsam 5242880 npoint 214 integ     3 sigma    1.322 bsw 0
Spectrum      3 integration periods
 277.802  279.425  285.987  282.028  282.739  280.213  280.137  280.946  280.667  279.792  280.005  283.700  280.281  280.736  280.662  280.631  281.124  287.088  281.968  282.929  281.758  279.786  282.307  284.986  283.116  284.136  280.580  285.071  284.205  283.346  281.182  280.134  280.715  280.257  282.254  284.109  280.150  282.330  281.056  280.046  283.109  282.361  282.610  279.212  281.689  283.758  283.861  281.012  282.338  284.367  279.703  281.870  284.610  282.930  284.596  282.652  280.923  281.897  281.835  278.887  280.468  280.387  279.393  285.092  283.405  282.324  283.131  282.333  280.152  282.096  279.335  282.065  278.172  280.317  281.787  282.478  280.769  281.050  282.836  279.836  280.520  281.822  282.688  281.478  280.923  280.108  281.447  282.389  282.506  284.746  283.305  279.489  280.442  283.829  282.028  284.345  283.613  286.693  283.565  283.093  281.705  283.201  283.372  282.476  282.533  282.947  281.835  281.887  283.736  281.640  284.007  285.163  283.453  282.826  280.870  282.190  284.011  284.156  282.546  283.792  280.318  284.110  286.861  281.492  283.614  279.657  279.825  281.358  282.669  278.110  279.407  281.343  281.816  280.026  284.280  281.049  280.527  282.773  279.166  283.198  279.310  281.412  281.169  282.481  281.113  281.741  284.762  281.561  280.820  281.854  280.841  280.098  282.758  282.005  285.286  282.259  283.018  280.149  281.328  282.363  282.248  281.025  283.225  283.644  281.302  283.365  283.310  281.965  282.368  277.452  278.961  282.066  280.632  278.102  280.647  280.183  279.609  282.010  282.442  281.610  282.250  280.220  281.054  282.047  280.202  280.218  281.081  280.023  277.702  281.568  280.071  280.467  280.527  279.319  280.972  281.553  279.345  285.154  279.061  283.551  281.002  279.364  282.461  281.648  278.264  281.135  281.168  280.085  279.689  280.899  279.469  281.564  284.860  278.736 
DATE 2017:067:02:31:50 obsn 653 az 263 el 72 freq_MHz  1422.8800 Tsys 231.636 Tant 53.651 vlsr   38.89 glat  0.203 glon 177.617 source G177.5 
Fstart 1421.877 fstop 1423.883 spacing 0.009375 bw    2.400 fbw    2.000 MHz nfreq 256 nsam 5242880 npoint 214 integ     8 sigma    0.865 bsw 0
Spectrum      7 integration periods
 280.146  282.910  283.577  282.319  281.982  281.972  283.235  283.420  283.636  283.091  282.874  282.242  281.043  283.917  283.095  282.021  283.778  284.607  281.884  283.282  282.404  284.448  282.556  284.395  283.765  285.665  284.369  283.933  284.022  284.149  284.902  285.139  284.624  283.861  282.906  282.554  283.439  284.015  281.778  284.916  283.120  283.891  281.950  282.114  282.783  283.070  282.847  283.227  283.230  282.781  281.067  282.681  282.367  281.958  282.258  283.490  285.069  283.028  284.671  283.628  284.332  283.034  283.984  284.198  282.521  284.151  282.472  283.508  283.107  282.142  283.755  283.117  284.010  280.829  283.294  280.327  282.936  282.382  282.338  280.332  282.473  283.091  282.857  284.572  283.931  283.017  284.377  283.478  285.734  283.245  284.510  284.394  283.051  281.884  283.589  285.372  284.033  283.352  283.986  286.141  285.679  285.172  283.401  286.385  285.665  285.082  283.875  286.468  284.429  285.702  284.831  285.547  283.348  287.240  287.156  285.722  285.523  285.938  286.247  285.678  287.371  282.756  284.986  284.893  285.891  284.022  283.926  285.006  285.751  284.878  283.340  286.135  289.090  284.885  286.264  285.644  284.767  284.502  285.681  286.218  285.340  284.780  286.757  286.894  286.033  284.403  286.696  285.414  284.082  286.054  287.416  284.140  284.307  286.913  284.572  284.918  284.982  287.220  286.002  286.175  285.028  284.693  284.864  285.073  286.543  286.067  285.644  287.255  286.390  283.752  286.512  285.095  287.053  285.326  286.651  286.470  288.416  286.584  286.843  287.015  287.257  288.218  287.811  285.894  286.674  288.150  286.715  284.870  288.215  288.192  288.119  289.030  286.755  286.766  287.933  287.723  288.658  286.999  287.206  286.784  288.086  286.672  285.981  287.856  289.966  287.946  287.465  289.234  288.921  287.737  287.492  288.494  287.052  287.759 
DATE 2017:067:02:32:14 obsn 654 az 255 el 72 freq_MHz  1422.8800 Tsys 231.636 Tant 47.807 vlsr   39.57 glat  0.205 glon 180.117 source G180.0 
Fstart 1421.877 fstop 1423.883 spacing 0.009375 bw    2.400 fbw    2.000 MHz nfreq 256 nsam 5242880 npoint 214 integ     7 sigma    0.935 bsw 0
Spectrum      6 integration periods
 273.464  276.448  276.623  277.823  279.018  276.121  275.971  278.020  276.665  278.633  276.498  278.568  279.000  275.856  278.644  275.023  278.661  277.994  278.461  278.275  279.393  277.965  278.766  278.486  280.167  279.125  279.603  278.770  279.220  280.574  277.420  279.019  279.715  277.834  278.837  278.527  277.537  277.352  277.863  276.267  277.832  278.206  279.576  277.960  275.556  278.758  278.488  276.720  276.800  278.166  277.575  277.120  278.552  277.117  279.030  280.999  280.919  277.950  279.733  277.411  280.502  278.814  280.528  280.149  278.762  278.153  279.867  276.200  277.986  275.604  279.208  276.849  279.498  279.875  277.685  278.335  276.784  278.920  279.323  277.922  278.808  277.645  278.314  278.824  277.612  278.076  277.970  279.476  278.480  278.651  278.400  278.114  279.420  277.084  280.029  281.585  279.284  277.426  280.393  279.107  277.238  279.353  278.058  278.655  281.394  280.743  278.084  278.235  278.404  279.212  278.399  282.052  278.762  280.352  280.906  279.970  278.873  279.774  279.329  282.124  281.590  280.646  279.971  278.832  277.870  278.640  280.453  280.827  281.575  280.956  280.370  278.044  279.341  277.802  278.653  279.602  279.330  278.438  278.241  278.584  279.127  280.353  281.257  280.499  279.492  280.588  279.859  279.780  280.226  279.076  281.000  280.305  280.078  279.346  279.543  277.608  278.380  279.607  279.531  279.429  278.504  279.890  282.518  282.292  280.683  279.853  279.873  278.538  280.451  281.853  282.013  281.969  280.232  281.114  283.000  282.891  281.059  281.305  281.698  281.519  281.642  282.007  282.241  282.181  283.769  282.872  281.529  282.485  281.442  282.269  281.985  282.210  282.751  281.195  280.792  282.149  280.850  281.754  281.562  279.720  278.866  280.185  283.777  280.874  282.261  282.370  282.056  283.361  282.045  282.338  281.989  281.397  279.247  282.127 
DATE 2017:067:02:32:38 obsn 655 az 247 el 72 freq_MHz  1422.8800 Tsys 231.636 Tant 46.913 vlsr   40.17 glat  0.205 glon 182.617 source G182.5 
Fstart 1421.877 fstop 1423.883 spacing 0.009375 bw    2.400 fbw    2.000 MHz nfreq 256 nsam 5242880 npoint 214 integ     7 sigma    0.935 bsw 0
Spectrum      6 integration periods
 273.631  273.954  275.572  275.724  277.436  277.428  275.283  275.974  275.602  275.309  276.367  277.420  276.907  277.425  277.710  276.467  276.484  276.586  277.167  278.424  276.690  276.911  277.166  278.025  279.216  277.925  278.346  278.505  278.924  279.096  278.451  277.581  278.530  278.040  278.449  278.428  276.618  277.780  279.301  278.785  278.262  276.723  278.457  276.029  276.507  277.336  278.988  277.867  277.294  276.934  276.586  277.607  277.566  277.989  279.850  277.017  277.477  276.765  278.690  278.193  276.354  277.447  279.941  278.443  278.675  278.611  276.674  278.418  278.014  275.963  278.189  277.402  278.480  279.053  279.150  277.581  278.385  277.705  277.331  277.460  277.908  275.455  276.389  276.809  278.430  278.063  276.532  278.608  276.562  274.619  279.011  278.743  278.320  277.928  279.559  278.700  278.595  278.316  279.349  277.876  278.330  278.810  276.062  278.469  276.164  277.653  277.963  279.726  280.528  278.182  277.389  277.508  278.047  279.150  280.665  276.356  277.098  279.399  278.925  276.547  278.488  278.822  278.496  277.123  278.515  277.922  278.012  276.428  275.434  279.299  279.197  278.444  277.682  277.681  277.312  276.926  280.149  280.116  279.076  278.878  280.385  277.351  277.055  279.183  277.812  278.889  277.485  279.445  279.099  279.513  278.306  278.444  276.765  277.613  278.008  277.073  277.340  279.005  278.215  277.173  279.828  278.270  277.160  279.744  276.030  277.196  279.638  277.450  279.160  280.422  279.407  277.546  277.376  279.597  278.723  276.439  279.939  279.403  278.552  280.054  279.864  280.536  280.577  279.817  280.999  279.332  277.759  279.636  280.276  280.085  278.433  279.794  282.098  280.159  278.058  279.728  280.529  280.273  278.671  277.598  280.222  279.805  282.244  279.604  278.559  277.293  278.540  276.983  278.276  279.178  279.005  276.607  278.330  279.376 
DATE 2017:067:02:33:02 obsn 656 az 239 el 72 freq_MHz  1422.8800 Tsys 231.636 Tant 49.845 vlsr   40.70 glat  0.206 glon 185.117 source G185.0 
Fstart 1421.877 fstop 1423.883 spacing 0.009375 bw    2.400 fbw    2.000 MHz nfreq 256 nsam 5242880 npoint 214 integ     5 sigma    1.024 bsw 0
Spectrum      5 integration periods
 273.360  277.207  277.237  277.167  276.694  276.973  279.402  278.730  277.159  276.809  276.325  275.413  276.939  277.653  275.943  275.682  275.892  278.200  278.145  277.155  278.291  279.485  276.997  278.368  277.690  277.612  279.075  279.042  278.106  278.190  278.649  277.558  281.783  277.897  280.113  278.286  277.913  277.290  276.410  279.052  278.257  279.691  280.071  277.627  277.839  279.236  280.484  278.088  278.540  277.978  277.108  278.617  279.504  277.728  278.523  279.735  278.697  277.771  279.601  277.286  277.149  277.170  278.543  278.606  277.916  276.501  278.508  278.003  278.629  277.938  277.260  276.612  278.387  277.768  279.013  278.111  275.446  277.884  278.370  277.899  277.943  279.073  279.988  280.084  276.514  276.787  279.787  276.955  279.496  279.604  279.323  280.023  278.420  280.406  280.247  286.496  280.565  279.451  279.947  281.032  279.693  280.803  278.241  280.975  279.780  280.207  281.555  280.914  278.650  280.740  279.945  280.683  279.971  281.434  280.981  280.480  278.964  277.266  278.970  281.535  278.172  279.700  280.552  278.526  279.221  279.305  281.211  281.221  279.113  278.748  279.311  278.828  278.692  279.248  280.808  280.207  279.182  280.814  280.614  278.865  280.394  281.020  282.103  279.235  279.873  281.926  281.935  279.531  283.174  281.159  280.150  281.672  283.182  280.121  283.246  281.010  278.981  280.909  280.555  280.828  281.650  281.866  281.730  280.403  279.279  281.514  279.616  280.256  277.319  279.072  280.896  280.766  281.250  281.671  280.683  281.240  281.840  279.464  281.400  282.645  280.571  283.957  283.029  282.308  283.760  282.217  282.850  283.010  281.524  283.652  283.669  284.114  281.382  281.576  282.007  283.564  283.047  282.683  281.875  282.897  282.347  283.523  283.080  284.296  282.319  281.980  281.655  279.980  280.620  281.580  284.563  282.110  283.497  283.421 
DATE 2017:067:02:33:26 obsn 657 az 232 el 71 freq_MHz  1422.8800 Tsys 231.636 Tant 49.516 vlsr   41.15 glat  0.206 glon 187.618 source G187.5 
Fstart 1421.877 fstop 1423.883 spacing 0.009375 bw    2.400 fbw    2.000 MHz nfreq 256 nsam 5242880 npoint 214 integ     5 sigma    1.024 bsw 0
Spectrum      5 integration periods
 275.236  277.225  275.777  278.320  275.710  277.246  275.853  277.192  276.522  275.991  276.091  276.805  274.371  276.215  274.466  276.393  276.230  276.116  277.372  278.470  277.452  278.196  277.637  280.389  277.447  277.237  277.775  278.015  277.933  278.389  278.027  277.752  280.879  275.934  277.799  276.438  276.074  278.139  279.253  278.423  276.809  277.764  276.103  276.915  276.928  278.692  279.056  277.314  278.153  278.258  276.794  276.754  276.327  277.586  277.727  277.976  278.686  278.126  277.610  277.097  277.153  277.876  277.594  276.744  277.000  278.212  275.962  277.415  277.668  275.955  278.758  278.411  277.852  278.588  276.815  276.275  277.353  277.574  277.983  280.184  279.983  278.479  278.275  279.004  278.254  274.875  278.277  278.674  278.482  276.534  279.047  279.488  278.700  278.697  278.902  283.596  279.282  278.021  279.732  277.934  278.379  278.431  278.299  277.390  280.358  280.103  280.817  279.776  280.280  282.911  279.655  279.206  279.863  279.349  278.112  279.640  279.049  282.820  280.156  279.048  280.480  280.126  278.814  278.147  279.187  279.487  280.135  280.319  278.357  278.797  279.806  278.635  280.617  279.797  277.896  280.151  280.263  280.845  280.891  280.620  279.088  283.216  280.585  280.161  281.153  278.081  279.738  280.365  279.296  280.538  280.993  281.324  278.251  282.264  282.155  281.363  280.894  281.566  279.055  278.876  280.736  278.882  281.171  280.624  281.292  281.101  279.595  276.202  278.280  279.490  280.673  281.235  279.418  279.588  282.953  280.982  280.996  281.746  283.657  282.372  280.142  279.740  281.352  282.104  281.505  281.583  283.378  280.909  280.988  279.972  283.206  281.648  282.748  281.050  280.719  282.132  281.270  280.672  281.322  281.674  280.945  279.142  285.399  282.347  281.498  282.950  280.415  281.397  279.757  281.123  281.025  279.943  280.754  280.266 
DATE 2017:067:02:33:50 obsn 658 az 225 el 70 freq_MHz  1422.8800 Tsys 231.636 Tant 45.014 vlsr   41.51 glat  0.205 glon 190.118 source G190.0 
Fstart 1421.877 fstop 1423.883 spacing 0.009375 bw    2.400 fbw    2.000 MHz nfreq 256 nsam 5242880 npoint 214 integ     4 sigma    1.145 bsw 0
Spectrum      4 integration periods
 273.647  273.762  277.146  273.532  275.232  276.443  276.390  275.316  275.259  275.300  271.826  274.935  272.982  274.264  274.867  275.770  273.956  274.964  275.152  275.196  275.790  273.709  277.190  275.508  275.635  275.098  277.120  274.154  276.857  276.481  276.937  274.963  273.996  276.169  272.275  276.779  276.851  274.136  274.259  276.334  279.235  276.678  275.493  275.078  275.319  275.590  278.939  274.542  276.432  274.669  276.178  278.323  276.468  277.974  275.313  276.498  275.226  277.407  275.451  275.787  274.211  275.120  277.095  276.138  277.794  276.669  274.356  273.951  275.386  273.799  275.633  278.068  276.681  275.928  273.373  274.022  274.900  274.658  275.591  275.588  272.538  273.675  275.001  274.655  277.344  277.123  275.637  274.960  277.352  276.735  276.752  276.397  276.225  277.718  275.090  278.438  277.012  276.264  277.775  279.467  276.682  277.280  276.495  275.329  276.576  276.302  278.505  277.567  276.590  279.155  280.143  277.824  279.440  277.722  277.959  277.306  276.332  279.768  276.467  278.348  276.666  276.752  279.888  276.326  277.659  275.372  280.111  278.071  277.432  277.028  277.783  275.846  275.740  276.818  276.191  275.630  277.084  278.794  277.733  279.274  277.280  277.435  277.341  279.624  276.101  277.200  277.069  275.452  280.663  280.156  276.952  276.220  277.191  280.911  277.361  278.701  276.631  277.130  276.603  277.319  277.854  276.590  278.155  278.954  278.006  278.216  276.590  276.323  277.439  278.712  280.523  277.909  276.641  277.688  275.456  276.466  277.325  277.024  276.749  277.422  279.652  279.524  276.283  276.664  275.895  277.843  279.200  276.630  277.153  278.641  280.593  277.722  276.728  278.600  276.339  279.145  278.894  277.734  277.425  277.821  278.323  275.788  276.168  278.440  276.248  278.084  276.826  277.143  277.344  277.191  277.154  279.449  275.240  278.804 
DATE 2017:067:02:34:11 obsn 659 az 219 el 69 freq_MHz  1422.8800 Tsys 231.636 Tant 45.343 vlsr   41.81 glat  0.205 glon 192.618 source G192.5 
Fstart 1421.877 fstop 1423.883 spacing 0.009375 bw    2.400 fbw    2.000 MHz nfreq 256 nsam 5242880 npoint 214 integ     4 sigma    1.145 bsw 0
Spectrum      4 integration periods
 272.765  275.237  276.749  275.328  275.250  277.518  275.398  273.841  274.980  276.341  274.436  272.680  273.714  272.670  273.455  271.733  274.260  274.304  274.554  277.950  276.069  273.763  273.069  274.776  275.075  276.260  275.457  273.214  277.816  275.589  274.826  275.346  276.649  277.425  273.601  273.470  272.963  273.996  275.952  273.324  276.388  277.673  275.806  275.726  275.762  274.509  276.835  274.641  279.614  273.734  276.039  277.094  275.298  276.461  274.972  276.728  275.445  273.773  275.783  272.470  276.348  274.819  275.662  275.303  276.237  276.378  275.873  274.326  275.523  276.594  277.404  277.094  273.087  274.543  274.089  276.021  273.982  277.852  275.905  274.818  274.265  274.918  276.040  275.571  274.354  276.126  275.086  274.374  275.214  276.705  276.905  275.515  274.154  276.917  276.617  282.184  276.793  276.052  276.953  275.375  276.659  276.443  274.406  275.015  275.497  274.974  278.329  276.765  277.333  277.746  277.849  276.355  275.388  275.421  277.223  275.667  278.202  278.196  279.880  277.428  275.312  278.300  278.047  277.301  277.325  278.571  273.685  275.116  277.510  274.088  277.077  274.174  279.938  277.497  274.748  277.662  276.694  278.411  275.782  277.385  276.651  277.675  277.370  275.977  279.303  277.788  278.513  278.725  277.269  278.515  277.435  277.101  280.177  276.969  279.097  278.036  277.709  277.275  277.970  277.692  277.660  276.857  277.148  278.115  277.811  275.379  274.960  277.080  275.259  276.276  275.652  274.543  274.649  276.226  276.792  275.566  277.555  278.501  277.801  277.891  276.438  280.164  278.757  278.174  274.576  276.151  277.779  277.885  276.442  276.057  277.255  278.874  277.846  280.691  277.894  275.975  275.233  277.442  275.634  275.702  276.817  278.960  277.707  276.627  276.973  277.087  277.206  280.211  277.903  276.993  277.581  280.228  278.347  274.194 
DATE 2017:067:02:34:32 obsn 660 az 213 el 68 freq_MHz  1422.8800 Tsys 231.636 Tant 47.855 vlsr   42.02 glat  0.203 glon 195.118 source G195.0 
Fstart 1421.877 fstop 1423.883 spacing 0.009375 bw    2.400 fbw    2.000 MHz nfreq 256 nsam 5242880 npoint 214 integ     4 sigma    1.145 bsw 0
Spectrum      4 integration periods
 288.951  291.198  293.725  292.241  293.444  291.713  294.909  293.742  292.416  291.579  294.112  294.263  290.060  290.810  291.022  292.455  293.348  291.563  292.325  292.163  290.156  293.644  291.357  290.953  293.793  293.462  293.499  292.962  293.498  291.804  291.608  295.446  293.342  294.212  294.568  291.799  293.903  291.891  290.968  292.895  291.369  292.114  290.688  293.044  293.602  291.964  290.703  293.045  295.383  290.731  291.446  292.721  291.358  288.853  289.322  290.496  292.278  292.726  290.762  292.395  291.766  293.189  292.967  291.825  290.353  289.980  291.511  288.074  290.017  293.044  289.402  292.280  289.681  289.694  289.774  290.562  291.019  288.850  291.636  290.367  289.214  291.034  291.261  286.670  287.401  288.698  290.270  289.164  288.421  289.876  288.523  289.506  289.412  290.261  285.943  291.173  288.729  286.592  288.564  289.315  289.864  290.070  288.732  287.472  290.810  289.416  289.138  287.803  288.990  289.908  290.101  289.116  290.659  287.152  289.136  289.766  290.132  289.745  284.763  288.083  287.919  285.529  286.891  287.461  285.430  286.601  287.187  286.393  285.433  289.105  285.344  285.019  296.757  285.148  285.178  286.854  284.261  286.832  286.508  287.645  286.176  286.646  288.491  285.543  288.110  288.255  287.343  286.102  288.481  285.338  287.263  286.507  283.709  285.939  284.809  286.822  287.832  283.752  282.602  283.401  285.376  285.286  283.760  283.807  286.146  285.906  281.928  284.082  283.244  284.423  283.485  282.445  285.828  284.435  287.819  284.014  283.231  283.684  282.768  282.558  283.921  283.515  282.840  283.376  281.870  287.541  285.455  283.916  283.444  281.971  282.822  282.264  281.895  285.595  279.577  281.771  281.628  280.173  280.629  282.170  283.595  282.347  282.811  280.397  281.419  282.604  281.540  281.439  283.197  281.826  283.899  282.245  285.598  280.710 
DATE 2017:067:02:34:53 obsn 661 az 208 el 66 freq_MHz  1422.8800 Tsys 231.636 Tant 43.283 vlsr   42.15 glat  0.202 glon 197.618 source G197.5 
Fstart 1421.877 fstop 1423.883 spacing 0.009375 bw    2.400 fbw    2.000 MHz nfreq 256 nsam 5242880 npoint 214 integ     5 sigma    1.024 bsw 0
Spectrum      5 integration periods
 271.103  273.956  275.382  274.471  273.926  275.353  274.732  274.409  274.394  274.469  273.373  276.215  273.940  274.037  274.374  275.843  275.987  276.865  274.838  275.250  273.719  274.494  275.293  277.146  277.031  276.193  277.598  275.207  276.028  274.850  274.444  276.794  275.257  277.639  276.456  275.421  275.863  277.106  275.844  275.243  276.091  275.240  274.084  275.856  276.138  277.672  279.810  275.301  280.715  274.640  274.553  277.082  277.577  276.525  275.346  277.673  275.604  276.311  276.448  277.199  277.034  277.873  278.322  277.247  277.248  276.369  275.796  276.114  273.364  278.437  278.693  277.656  277.995  276.156  275.689  273.020  277.114  274.625  275.971  277.217  277.290  275.162  274.253  274.757  274.851  276.041  275.044  277.421  275.356  276.603  275.448  276.718  275.278  277.522  275.930  277.281  276.432  277.062  277.952  274.283  273.716  275.811  276.006  274.945  276.894  275.832  276.271  273.502  274.915  278.641  277.970  277.089  278.239  275.052  277.731  276.468  277.148  275.863  275.813  275.404  275.717  275.891  277.970  276.984  276.047  275.434  276.678  275.983  275.714  276.092  276.633  275.949  283.104  278.132  276.150  276.366  276.223  276.611  276.020  275.350  275.548  275.348  274.472  274.739  276.266  274.889  273.544  276.528  276.845  276.558  275.957  274.792  273.963  277.586  278.174  277.413  276.533  275.742  274.949  276.127  276.035  275.403  277.371  274.762  276.848  276.529  274.429  276.932  277.378  275.747  276.986  276.638  275.040  276.920  276.651  276.646  277.632  276.635  276.112  276.202  274.691  274.645  276.894  276.869  275.550  275.369  277.244  275.966  275.570  275.743  275.886  276.958  276.298  275.162  275.963  275.886  276.643  277.577  277.661  275.073  275.131  276.382  277.053  277.488  275.849  275.503  274.280  273.076  275.600  275.988  276.811  277.276  277.419  277.083 
DATE 2017:067:02:35:14 obsn 662 az 204 el 65 freq_MHz  1422.8800 Tsys 231.636 Tant 43.726 vlsr   42.20 glat  0.200 glon 200.118 source G200.0 
Fstart 1421.877 fstop 1423.883 spacing 0.009375 bw    2.400 fbw    2.000 MHz nfreq 256 nsam 5242880 npoint 214 integ     5 sigma    1.024 bsw 0
Spectrum      5 integration periods
 268.709  273.494  272.575  269.566  270.006  269.670  272.085  272.452  272.330  269.790  269.296  272.195  271.663  270.271  269.495  272.407  269.194  270.703  270.504  272.291  271.200  271.335  272.677  269.015  272.570  272.640  271.378  272.160  271.596  272.235  272.172  271.782  268.716  272.599  270.753  271.936  272.752  270.092  270.721  272.334  272.150  271.097  271.499  271.667  273.440  273.148  273.627  271.919  272.516  271.833  271.334  270.367  272.262  273.116  272.309  271.824  275.018  274.577  273.801  272.364  270.713  274.797  272.781  274.175  271.992  275.638  271.232  273.692  272.281  274.268  272.626  273.448  273.023  272.439  271.855  271.725  271.414  271.336  274.214  271.716  271.142  272.377  270.854  270.181  272.198  273.466  272.976  272.555  273.446  273.998  271.691  272.648  273.680  273.676  271.587  272.172  273.227  275.490  272.108  274.259  274.455  272.000  273.715  274.947  274.927  275.302  273.984  274.563  274.505  273.551  273.299  272.555  272.415  274.973  275.466  274.017  274.118  273.783  271.736  273.088  272.979  273.926  276.139  273.405  273.648  272.920  270.799  274.778  272.834  272.582  270.645  275.002  277.063  273.521  273.087  273.090  273.259  274.736  273.664  273.773  274.108  274.908  273.275  272.800  274.727  273.403  276.731  275.851  273.264  273.843  274.127  272.364  273.186  272.646  274.827  272.072  271.949  272.443  272.108  273.034  274.430  275.300  272.279  270.896  273.435  275.676  272.561  274.757  273.842  271.855  274.771  272.283  272.662  273.368  271.811  274.646  275.716  274.429  273.969  273.899  273.336  274.140  274.943  273.742  273.160  274.687  275.094  273.890  272.991  274.242  274.658  274.257  275.165  276.203  274.991  273.654  275.014  272.655  274.042  274.047  272.886  275.155  272.496  275.461  270.562  273.663  274.705  277.147  273.081  272.088  272.034  274.437  273.382  274.970 
DATE 2017:067:02:35:35 obsn 663 az 200 el 63 freq_MHz  1422.8800 Tsys 231.636 Tant 47.069 vlsr   42.17 glat  0.197 glon 202.618 source G202.5 
Fstart 1421.877 fstop 1423.883 spacing 0.009375 bw    2.400 fbw    2.000 MHz nfreq 256 nsam 5242880 npoint 214 integ     7 sigma    0.935 bsw 0
Spectrum      6 integration periods
 290.025  292.058  295.176  291.947  291.252  291.561  292.295  290.295  293.585  292.189  293.440  291.096  291.634  291.225  291.682  290.867  290.273  292.712  290.562  293.758  290.705  292.050  290.943  291.161  290.658  290.061  292.271  291.745  291.358  291.832  292.817  290.632  293.054  293.646  290.308  291.754  290.157  291.006  290.988  289.169  293.766  294.047  293.612  290.405  289.674  290.933  291.481  289.399  289.544  290.696  289.691  288.801  290.945  289.389  289.089  292.046  290.548  291.253  290.771  291.460  288.898  290.006  289.369  290.965  289.586  289.582  289.573  287.439  287.125  289.476  289.592  289.211  290.992  289.006  286.822  288.621  288.746  289.754  288.136  291.212  287.260  288.602  286.567  287.382  289.266  288.646  287.445  288.713  289.005  287.474  288.750  287.516  287.689  287.409  286.861  290.781  288.178  288.403  287.998  288.087  289.313  287.495  289.084  287.811  289.217  290.619  288.310  287.439  288.986  289.842  287.590  288.044  288.082  287.112  287.462  287.858  287.337  289.728  288.063  284.774  287.261  288.571  289.103  287.961  287.570  288.144  286.621  286.531  286.198  288.642  287.998  287.474  290.455  285.099  286.410  286.352  285.552  286.303  288.969  284.847  286.479  284.599  285.734  285.481  284.308  286.308  286.300  288.329  285.069  287.483  286.665  284.775  288.211  287.203  286.091  285.849  285.644  286.853  285.880  285.268  284.386  283.183  284.220  285.372  285.971  285.631  284.828  286.472  287.008  282.941  286.017  286.945  286.048  286.031  285.275  284.774  285.489  284.288  284.998  284.718  284.177  286.735  286.276  283.887  286.494  286.965  286.171  284.849  285.722  284.355  285.132  285.046  284.235  283.722  286.244  285.383  285.199  283.786  283.900  283.709  281.429  285.410  283.494  283.934  282.555  282.044  280.949  282.536  281.194  281.875  283.798  284.405  283.688  283.357 
DATE 2017:067:02:35:57 obsn 664 az 197 el 61 freq_MHz  1422.8800 Tsys 231.636 Tant 45.879 vlsr   42.06 glat  0.195 glon 205.118 source G205.0 
Fstart 1421.877 fstop 1423.883 spacing 0.009375 bw    2.400 fbw    2.000 MHz nfreq 256 nsam 5242880 npoint 214 integ     7 sigma    0.935 bsw 0
Spectrum      6 integration periods
 278.407  279.228  282.189  280.252  279.936  279.870  279.939  278.722  280.501  279.689  279.932  281.862  279.577  279.556  279.060  280.715  280.421  279.164  277.545  282.072  280.690  279.463  280.152  282.243  282.286  279.641  279.675  278.633  281.772  279.377  279.905  278.843  281.816  279.017  279.595  279.241  279.944  278.224  279.513  276.859  280.998  280.677  278.294  277.796  279.483  279.706  279.959  278.121  279.511  280.025  279.382  280.688  278.485  278.847  279.916  280.367  278.715  279.158  282.390  279.187  278.039  279.092  281.461  278.347  277.002  280.584  278.622  277.767  277.708  277.547  281.856  279.083  276.812  279.424  277.091  275.964  277.464  279.161  276.278  279.155  278.062  278.761  277.342  276.035  278.136  279.028  279.060  281.583  277.348  277.862  277.310  277.640  277.158  277.466  279.438  290.565  279.878  279.554  276.715  276.168  283.967  280.173  280.052  278.459  277.151  279.478  279.018  279.349  279.443  281.839  278.174  279.474  278.512  280.112  279.502  278.533  277.628  280.545  278.349  279.137  281.053  278.066  280.421  277.027  277.172  277.377  279.479  276.334  278.161  276.931  279.389  277.751  280.073  276.523  280.684  279.240  280.106  278.375  278.949  279.472  279.152  277.784  279.002  276.681  277.561  277.677  276.882  281.433  277.559  278.518  277.509  276.536  277.983  278.495  277.211  280.137  280.722  278.992  277.956  277.334  276.775  278.471  278.746  276.713  280.716  277.787  277.921  276.214  278.287  277.180  275.985  276.715  279.377  280.210  277.255  276.980  276.403  277.609  279.302  277.130  278.999  280.043  277.806  277.466  277.013  280.199  278.176  277.866  277.182  278.331  277.393  276.722  277.120  278.182  281.515  276.947  277.879  278.524  279.187  277.503  278.812  277.335  282.007  279.010  277.694  277.579  278.573  277.674  278.229  279.134  278.627  280.494  277.615  276.327 
DATE 2017:067:02:36:18 obsn 665 az 194 el 59 freq_MHz  1422.8800 Tsys 231.636 Tant 52.830 vlsr   41.87 glat  0.192 glon 207.618 source G207.5 
Fstart 1421.877 fstop 1423.883 spacing 0.009375 bw    2.400 fbw    2.000 MHz nfreq 256 nsam 5242880 npoint 214 integ     7 sigma    0.935 bsw 0
Spectrum      6 integration periods
 272.136  274.738  273.356  276.092  277.015  275.433  275.622  276.665  277.346  275.136  276.790  276.192  274.231  274.536  273.570  276.206  275.365  274.915  276.531  277.595  276.496  277.962  276.501  277.303  278.093  278.404  277.451  280.574  277.051  276.959  277.327  277.332  279.266  275.883  277.427  277.922  278.946  275.007  276.598  276.414  278.273  279.010  275.886  276.590  277.351  277.606  278.301  279.112  276.635  278.449  276.361  275.519  278.197  276.349  278.269  276.204  278.184  274.603  278.066  276.733  277.216  278.031  280.701  277.075  276.691  278.319  275.879  275.953  276.736  276.079  277.713  278.773  275.689  275.514  275.200  274.121  274.914  275.521  275.342  277.438  276.373  277.056  277.254  276.865  276.089  276.615  275.927  277.470  275.223  275.742  275.471  278.512  279.411  277.646  279.549  300.365  277.973  277.501  278.756  277.787  278.670  279.591  277.388  279.771  278.864  279.552  279.366  279.355  280.106  279.595  279.582  278.832  278.885  278.551  278.065  280.490  278.234  278.655  277.952  278.125  279.560  279.562  279.964  277.654  277.625  277.418  278.035  277.248  276.712  277.955  278.328  275.868  278.393  277.499  278.915  277.528  276.680  276.691  276.030  279.818  277.963  278.510  277.698  277.372  277.122  277.270  278.316  277.664  277.223  277.417  278.012  277.177  277.682  276.920  277.415  279.352  277.684  279.524  276.171  278.626  278.637  276.327  276.318  277.437  277.642  277.957  278.220  277.535  276.657  276.647  276.156  278.028  277.112  275.062  277.548  278.584  280.521  276.099  279.255  276.835  275.840  279.805  276.796  277.606  276.829  276.535  278.120  276.700  278.866  277.386  276.019  278.010  276.396  277.640  277.770  277.963  278.800  279.109  278.380  279.617  276.589  277.795  279.771  278.661  277.201  278.554  281.225  277.342  278.078  278.538  278.121  277.523  278.312  276.692 
DATE 2017:067:02:36:39 obsn 666 az 191 el 57 freq_MHz  1422.8800 Tsys 231.636 Tant 42.743 vlsr   41.60 glat  0.188 glon 210.118 source G210.0 
Fstart 1421.877 fstop 1423.883 spacing 0.009375 bw    2.400 fbw    2.000 MHz nfreq 256 nsam 5242880 npoint 214 integ     8 sigma    0.865 bsw 0
Spectrum      7 integration periods
 267.203  270.920  273.159  271.625  271.096  270.480  272.341  271.076  271.936  269.654  271.435  273.762  270.050  271.557  272.416  270.580  270.037  274.443  272.061  273.107  270.619  270.770  270.866  271.692  271.115  274.074  273.240  271.666  275.051  274.065  271.740  272.727  276.467  272.224  269.565  273.186  274.981  272.283  270.501  271.307  273.564  274.992  272.837  271.928  272.576  273.355  271.543  271.452  271.372  274.175  273.233  272.475  271.287  272.139  272.288  273.338  275.817  274.925  275.391  273.880  272.741  272.340  274.358  275.999  274.871  274.554  273.301  273.192  272.486  272.951  274.694  272.609  271.555  271.895  272.426  273.864  271.497  271.649  271.712  274.957  272.300  272.811  273.629  273.769  273.911  272.676  273.102  273.623  272.855  272.932  273.565  273.624  275.096  272.979  272.718  297.691  274.112  274.179  274.272  274.251  274.152  271.915  276.249  274.350  274.292  274.590  275.753  273.477  273.205  278.355  275.417  273.455  274.705  274.925  274.067  274.567  274.448  275.352  274.709  274.685  274.150  274.466  276.161  272.038  275.687  274.027  275.599  276.228  272.011  273.744  274.118  274.934  275.122  273.258  275.234  272.662  273.467  273.401  274.391  274.540  272.807  273.917  275.159  275.633  275.319  274.970  274.666  275.645  275.261  274.177  274.875  274.718  271.677  273.396  273.640  276.761  277.715  272.815  274.329  273.548  274.588  274.053  274.560  275.164  277.116  273.025  274.728  274.118  275.199  273.835  273.517  274.380  273.120  275.510  275.183  274.479  272.323  274.454  274.833  274.009  274.697  274.771  273.777  274.354  274.678  274.216  273.757  274.174  274.580  275.108  274.049  272.929  273.217  273.310  274.873  273.942  274.144  274.379  273.404  272.899  274.686  273.439  274.559  274.981  274.728  274.058  272.811  273.186  272.646  274.701  272.973  275.357  272.736  272.784 
DATE 2017:067:02:37:16 obsn 667 az 186 el 53 freq_MHz  1422.8800 Tsys 231.636 Tant 41.751 vlsr   40.82 glat  0.180 glon 215.118 source G215.0 
Fstart 1421.877 fstop 1423.883 spacing 0.009375 bw    2.400 fbw    2.000 MHz nfreq 256 nsam 5242880 npoint 214 integ     4 sigma    1.145 bsw 0
Spectrum      4 integration periods
 267.382  268.678  266.062  268.873  268.849  269.528  267.773  267.528  270.485  268.396  267.736  270.753  268.027  270.184  272.602  269.089  270.311  271.111  269.517  269.165  271.897  270.463  272.741  269.114  269.504  270.410  271.351  270.908  271.254  267.746  270.902  269.890  270.228  271.836  271.619  271.365  268.699  269.488  270.848  269.135  271.460  269.821  273.203  271.790  272.025  272.370  272.011  269.308  271.845  271.246  271.674  271.950  270.157  273.301  269.746  270.893  271.547  269.176  271.635  270.371  272.466  269.972  270.285  271.634  269.746  269.774  271.114  269.272  270.559  269.590  269.919  270.070  268.755  268.999  270.881  270.807  271.853  270.097  270.396  270.397  269.310  269.236  271.192  271.191  270.891  269.602  268.477  270.053  271.013  271.598  271.866  271.906  270.799  272.899  271.069  274.833  271.420  271.577  269.951  272.814  271.901  273.895  273.420  272.427  272.395  270.726  271.680  270.673  270.992  268.832  273.248  273.414  272.732  275.265  274.641  272.867  272.634  271.760  273.783  273.673  272.893  272.997  274.037  274.226  272.670  272.265  271.912  270.800  270.582  273.031  271.063  270.557  271.314  272.121  273.558  271.130  272.371  270.318  273.467  270.014  269.955  270.881  272.249  273.382  270.825  273.533  272.658  275.405  275.870  273.389  271.714  273.114  271.849  272.983  274.836  271.643  271.649  273.645  272.876  275.357  272.316  270.679  272.462  271.478  270.600  273.746  271.540  275.386  270.411  272.095  272.884  268.570  272.222  274.798  272.202  272.306  273.476  274.291  270.321  272.149  275.010  271.085  271.488  274.367  271.153  276.638  275.540  269.242  272.809  273.087  273.156  271.858  275.145  274.553  272.097  272.680  272.123  272.102  271.793  272.040  273.292  272.050  275.412  272.253  275.103  271.051  271.863  271.222  273.006  271.817  272.131  273.260  272.166  270.805 
DATE 2017:067:02:37:37 obsn 668 az 184 el 51 freq_MHz  1422.8800 Tsys 231.636 Tant 39.702 vlsr   40.32 glat  0.176 glon 217.618 source G217.5 
Fstart 1421.877 fstop 1423.883 spacing 0.009375 bw    2.400 fbw    2.000 MHz nfreq 256 nsam 5242880 npoint 214 integ     5 sigma    1.024 bsw 0
Spectrum      5 integration periods
 266.569  269.004  270.896  269.869  269.349  269.522  271.943  271.029  267.726  269.137  269.019  268.828  268.889  268.974  268.999  269.940  268.591  271.369  268.146  270.789  271.076  269.330  269.044  270.260  268.763  269.521  269.012  268.202  270.654  269.742  270.271  270.502  268.858  270.799  271.097  270.495  267.992  269.357  269.173  268.739  271.908  269.351  269.993  267.526  269.947  270.923  271.781  267.603  271.461  271.104  270.462  270.976  270.989  268.990  271.032  270.172  269.508  268.456  268.579  271.135  270.800  270.586  269.267  270.184  268.772  271.339  269.848  270.842  271.282  269.775  270.542  270.176  270.213  268.603  268.992  270.937  269.818  267.471  268.480  269.611  269.619  270.925  271.241  268.647  268.787  269.444  268.697  271.903  271.359  272.911  270.404  273.749  271.758  269.413  270.789  280.925  267.950  269.991  271.669  271.684  269.573  270.172  270.875  271.629  270.155  272.303  273.153  272.934  270.256  272.086  273.235  269.036  271.027  270.898  270.904  272.090  272.309  272.836  271.675  269.438  272.033  270.528  274.543  270.775  269.114  271.545  270.103  270.019  270.527  271.868  269.162  269.771  277.174  271.150  270.686  269.241  269.887  270.539  271.147  271.062  269.228  271.867  271.604  270.728  272.385  270.013  273.012  271.688  270.122  269.367  271.736  271.099  273.021  271.751  271.675  270.801  271.814  270.681  272.272  270.473  270.890  270.392  271.693  271.566  272.040  271.220  271.240  270.737  269.728  272.636  271.228  270.607  270.182  272.230  271.911  272.978  270.380  273.504  274.112  271.782  273.062  271.149  271.133  272.314  273.981  271.827  270.752  270.004  271.518  269.304  271.301  271.500  272.999  269.972  273.386  271.790  269.148  271.045  271.878  272.580  271.657  272.468  271.520  270.615  271.885  273.238  269.968  271.986  272.349  270.544  269.228  272.988  271.271  271.311 
DATE 2017:067:02:37:58 obsn 669 az 183 el 48 freq_MHz  1422.8800 Tsys 231.636 Tant 39.187 vlsr   39.74 glat  0.171 glon 220.118 source G220.0 
Fstart 1421.877 fstop 1423.883 spacing 0.009375 bw    2.400 fbw    2.000 MHz nfreq 256 nsam 5242880 npoint 214 integ     5 sigma    1.024 bsw 0
Spectrum      5 integration periods
 266.794  267.729  270.679  266.871  269.664  266.666  267.535  269.195  269.103  267.701  268.072  267.499  268.630  267.773  267.746  270.078  268.808  271.691  268.734  268.016  269.210  268.969  270.995  267.924  271.152  271.198  269.332  268.130  270.884  270.895  272.266  269.869  268.561  271.960  269.774  268.166  270.924  269.810  270.491  270.447  270.379  269.458  270.150  267.680  269.272  269.809  270.738  269.788  269.399  272.031  270.454  269.384  269.513  272.033  270.790  272.365  271.656  269.966  270.236  272.441  269.483  271.165  273.965  270.562  272.009  270.357  270.873  268.184  270.525  272.130  269.897  268.852  271.109  271.490  269.218  270.529  270.679  271.075  268.726  270.455  267.994  269.458  269.586  270.064  268.987  270.539  268.091  270.647  269.285  269.328  269.341  269.630  272.236  270.007  268.642  302.691  269.298  269.896  270.134  272.386  272.659  270.815  270.087  270.362  272.117  269.062  267.689  270.882  269.616  272.039  273.276  272.495  270.406  269.689  272.043  269.926  270.327  270.646  268.972  267.814  269.963  272.185  275.652  271.083  270.252  272.539  272.413  270.185  272.032  269.915  272.184  271.703  277.845  269.289  270.187  268.632  271.239  272.761  270.305  270.291  270.071  269.262  270.836  270.935  270.450  270.499  268.832  271.132  269.320  270.513  269.673  269.003  268.769  272.334  270.257  271.657  272.523  270.908  270.338  269.986  270.199  270.641  271.462  269.989  270.025  269.135  269.466  269.078  270.576  271.661  269.777  271.196  271.558  273.063  271.078  271.427  269.613  270.996  271.013  271.343  270.342  274.300  269.325  270.019  272.970  271.846  269.865  270.316  273.817  269.316  269.910  270.209  269.421  270.137  270.790  271.269  269.166  268.936  270.180  268.825  270.200  271.660  269.674  269.012  269.443  267.902  270.040  269.335  270.056  269.839  269.945  274.240  271.194  270.409 
DATE 2017:067:02:38:19 obsn 670 az 181 el 46 freq_MHz  1422.8800 Tsys 231.636 Tant 38.896 vlsr   39.08 glat  0.166 glon 222.618 source G222.5 
Fstart 1421.877 fstop 1423.883 spacing 0.009375 bw    2.400 fbw    2.000 MHz nfreq 256 nsam 5242880 npoint 214 integ     7 sigma    0.935 bsw 0
Spectrum      6 integration periods
 265.685  268.224  268.474  267.437  269.274  268.233  268.981  267.908  268.405  269.028  268.496  267.784  267.038  268.391  266.818  268.057  268.997  268.855  267.709  268.142  269.237  268.569  267.898  269.230  269.587  267.229  268.732  268.449  270.424  271.684  269.076  268.742  269.404  269.103  268.857  268.199  271.423  268.325  267.727  267.995  266.000  269.512  267.142  267.667  267.656  268.227  269.964  267.497  269.304  267.588  268.324  266.826  267.642  271.177  269.586  269.318  272.114  267.903  271.120  269.403  268.641  271.788  267.705  271.429  270.122  268.688  268.204  269.118  267.735  268.807  268.716  269.569  268.107  268.615  269.578  270.344  267.947  268.347  270.404  269.904  269.432  270.495  268.854  269.348  270.386  271.514  269.900  270.150  270.688  269.169  268.885  271.507  270.757  268.506  270.973  322.655  269.846  269.621  268.304  267.890  267.655  269.567  271.332  269.234  269.268  271.559  270.713  268.839  269.472  271.961  267.648  268.588  272.059  269.708  268.935  271.472  271.263  271.574  268.798  271.539  270.058  270.265  270.454  268.851  270.092  269.255  268.975  269.027  269.074  272.135  269.305  267.667  274.404  271.447  270.313  271.307  270.294  269.065  270.948  269.563  271.256  269.462  270.555  270.015  268.722  269.927  269.797  271.478  269.244  270.104  266.957  270.342  268.316  269.040  268.398  270.728  271.895  270.267  269.703  270.784  269.907  270.842  270.617  270.097  271.005  270.587  270.616  267.910  267.581  271.131  269.111  269.949  268.261  268.698  271.233  269.789  269.699  270.913  270.344  271.440  271.056  270.452  269.495  269.839  269.991  269.930  270.488  270.244  272.723  270.082  269.772  272.823  271.799  269.493  270.848  269.686  270.080  269.757  268.155  268.552  269.754  270.560  271.451  270.247  268.887  269.860  269.229  269.814  271.020  268.409  268.443  271.674  269.826  267.304 
DATE 2017:067:02:38:41 obsn 671 az 179 el 44 freq_MHz  1422.8800 Tsys 231.636 Tant 36.546 vlsr   38.35 glat  0.160 glon 225.118 source G225.0 
Fstart 1421.877 fstop 1423.883 spacing 0.009375 bw    2.400 fbw    2.000 MHz nfreq 256 nsam 5242880 npoint 214 integ     7 sigma    0.935 bsw 0
Spectrum      6 integration periods
 264.756  263.399  264.850  266.504  267.116  266.447  263.428  266.224  265.428  264.536  264.167  264.917  264.662  266.102  266.414  264.558  267.867  266.423  267.432  268.366  267.576  269.067  267.898  266.318  267.002  266.869  266.673  268.067  267.157  265.945  267.673  266.699  269.976  267.363  267.708  267.029  266.589  267.770  268.341  265.550  268.064  267.253  266.356  267.060  267.486  267.484  267.832  267.233  267.310  268.597  267.823  269.777  266.803  265.811  267.871  270.085  268.728  267.566  268.958  266.431  266.290  267.675  269.675  269.120  269.040  265.999  267.288  265.913  267.677  267.960  266.209  270.035  268.956  266.705  266.807  267.397  267.078  269.617  267.939  268.654  266.841  269.737  267.878  267.793  267.345  267.383  268.202  268.773  268.566  266.140  269.804  270.907  267.203  267.945  268.592  293.439  270.165  269.040  268.457  267.773  268.097  267.114  270.293  268.754  270.240  270.634  270.448  268.239  269.771  267.668  270.528  267.036  267.494  267.539  270.824  267.551  269.688  269.867  267.778  268.952  270.444  270.316  269.026  270.390  267.720  266.437  268.569  268.123  268.927  268.589  267.717  268.640  269.864  267.074  266.644  268.437  269.595  268.408  269.193  268.715  267.876  268.188  268.241  269.344  268.850  268.448  270.782  269.484  271.414  270.726  271.347  269.953  268.458  268.919  269.712  267.843  271.224  268.935  268.088  268.423  268.235  268.161  269.222  269.220  270.654  270.588  268.187  268.742  266.533  268.688  270.366  268.358  268.750  272.121  269.996  269.677  268.303  267.812  271.115  269.927  270.626  270.451  268.617  269.016  272.133  269.567  268.134  269.918  270.966  269.354  269.376  268.931  269.004  268.298  267.882  267.455  268.804  269.518  267.902  268.921  268.700  269.715  270.018  268.373  268.359  268.514  268.936  267.086  268.155  269.139  269.701  269.416  270.162  269.644 
DATE 2017:067:02:39:02 obsn 672 az 178 el 42 freq_MHz  1422.8800 Tsys 231.636 Tant 37.812 vlsr   37.54 glat  0.155 glon 227.618 source G227.5 
Fstart 1421.877 fstop 1423.883 spacing 0.009375 bw    2.400 fbw    2.000 MHz nfreq 256 nsam 5242880 npoint 214 integ     8 sigma    0.865 bsw 0
Spectrum      7 integration periods
 265.055  265.595  268.789  266.387  265.248  266.754  266.277  266.757  265.265  265.611  266.582  267.990  266.431  266.040  266.914  267.206  268.479  267.580  267.640  267.573  267.129  267.976  267.245  266.439  267.736  267.396  268.678  266.968  267.629  268.077  267.409  268.811  270.049  266.628  267.770  268.228  268.127  269.652  266.561  266.933  269.812  267.988  268.555  266.172  266.662  266.724  269.727  265.669  267.368  268.882  267.554  268.144  266.142  267.922  267.639  268.686  267.797  267.905  268.488  268.644  269.263  267.850  269.063  267.913  268.395  269.291  269.219  268.497  266.886  268.544  268.360  268.798  267.760  267.994  266.958  268.780  268.078  267.401  268.496  268.938  266.613  266.893  267.685  267.847  269.121  268.399  268.891  269.261  268.781  269.029  268.657  269.334  269.743  268.129  269.317  283.721  270.043  269.137  268.640  268.022  269.596  270.099  269.072  268.692  270.263  268.265  269.483  269.265  268.630  270.985  269.889  269.392  269.150  268.377  268.092  269.378  266.495  271.759  268.845  269.558  269.908  269.566  268.185  268.778  268.928  268.630  271.266  268.058  269.273  267.837  269.773  270.173  269.806  268.890  268.890  267.003  269.993  269.603  270.399  269.077  268.444  270.931  268.438  269.248  267.630  267.985  269.005  269.767  271.095  269.903  268.831  267.458  269.581  270.319  269.700  270.568  270.367  270.015  267.303  269.260  268.524  268.746  270.124  268.535  270.701  267.596  267.787  269.142  270.321  268.414  269.727  271.739  270.707  269.961  268.514  269.799  269.821  271.314  269.229  269.612  269.726  271.104  270.007  268.743  269.227  270.162  270.650  269.615  270.400  271.385  268.498  270.513  268.529  269.901  270.743  268.704  269.040  271.449  268.678  268.488  269.251  268.835  271.867  269.372  268.892  270.941  268.458  268.022  268.109  270.170  268.034  271.431  269.991  269.250 
DATE 2017:067:02:39:23 obsn 673 az 177 el 40 freq_MHz  1422.8800 Tsys 231.636 Tant 36.001 vlsr   36.67 glat  0.149 glon 230.118 source G230.0 
Fstart 1421.877 fstop 1423.883 spacing 0.009375 bw    2.400 fbw    2.000 MHz nfreq 256 nsam 5242880 npoint 214 integ     8 sigma    0.865 bsw 0
Spectrum      7 integration periods
 264.871  266.488  267.914  267.558  266.786  267.438  266.966  266.525  269.191  266.898  266.398  268.601  266.651  265.788  265.950  266.607  267.246  268.228  267.217  268.475  267.277  266.892  267.424  266.665  269.139  267.527  269.770  267.533  268.009  269.234  267.768  269.843  269.519  267.655  266.369  266.689  268.564  265.935  267.036  268.613  269.593  268.335  267.946  266.956  267.771  268.076  267.597  266.609  268.514  269.588  268.354  266.905  266.801  267.554  267.075  266.660  267.186  266.284  270.367  268.164  268.797  267.261  269.042  269.815  268.819  267.713  268.013  267.168  266.994  268.706  269.931  267.718  266.694  268.362  265.760  267.422  268.859  267.821  266.167  268.136  268.660  266.509  267.469  265.777  267.682  269.601  265.658  267.977  266.528  266.623  267.398  266.959  268.518  266.819  267.035  276.750  269.132  268.321  267.227  267.346  270.386  268.570  269.231  266.125  268.247  266.930  269.584  266.555  266.896  271.277  268.873  266.592  269.792  268.240  267.623  270.363  266.844  270.186  267.967  268.149  267.803  267.595  269.077  265.784  268.090  267.213  269.629  264.863  267.711  268.780  268.779  267.140  268.075  265.507  267.842  266.384  267.326  265.727  269.252  268.254  267.002  267.265  265.928  267.138  267.647  267.992  267.800  268.456  266.877  267.832  267.706  267.115  268.152  266.433  268.115  269.601  270.595  267.946  268.718  266.652  268.747  266.410  265.796  266.127  267.684  267.605  265.551  265.426  267.730  268.078  266.314  265.626  267.449  269.175  267.289  267.878  267.869  269.802  266.025  266.002  264.830  269.101  266.152  265.922  268.335  269.480  266.467  267.323  267.026  265.938  267.142  266.590  267.589  267.527  270.439  267.750  267.774  265.162  266.817  266.371  266.980  265.509  269.422  266.380  265.698  266.797  266.210  265.582  267.380  268.214  265.992  268.568  267.671  267.510 
DATE 2017:067:02:39:52 obsn 674 az 176 el 37 freq_MHz  1422.8800 Tsys 231.636 Tant 36.044 vlsr   35.72 glat  0.142 glon 232.618 source G232.5 
Fstart 1421.877 fstop 1423.883 spacing 0.009375 bw    2.400 fbw    2.000 MHz nfreq 256 nsam 5242880 npoint 214 integ     8 sigma    0.865 bsw 0
Spectrum      7 integration periods
 262.119  264.245  268.628  265.114  266.123  266.325  265.395  266.297  266.227  264.777  266.417  270.942  266.039  264.976  266.603  266.709  266.090  266.021  267.593  268.765  264.227  266.734  267.738  268.897  268.343  267.067  266.983  267.116  269.437  265.880  266.770  266.156  270.550  268.700  267.389  265.406  267.776  267.095  266.159  266.582  271.306  272.323  265.338  265.677  266.154  268.571  267.009  267.065  266.402  270.905  266.083  266.355  267.842  267.327  268.100  267.345  267.074  266.394  267.337  267.248  266.175  268.545  273.553  268.928  268.049  268.388  267.855  267.094  269.044  267.519  273.538  267.293  267.115  266.402  268.467  267.680  265.960  268.756  267.306  271.953  267.611  268.313  267.140  267.895  266.769  267.824  268.310  271.733  267.719  267.797  267.725  268.039  269.666  266.976  267.428  271.155  266.712  268.409  267.693  268.229  271.429  268.918  268.645  267.440  266.559  269.900  268.961  269.762  267.683  272.598  268.479  267.185  268.308  267.618  269.136  270.092  269.602  273.830  267.589  270.747  268.523  269.296  271.700  269.401  268.701  266.929  272.198  268.638  268.159  267.074  268.282  267.404  266.352  267.919  270.283  267.435  267.192  269.007  270.406  268.297  267.734  269.763  270.091  268.540  269.546  268.939  269.417  271.385  267.965  268.205  266.869  268.010  269.067  267.830  268.541  270.979  272.027  267.708  268.014  268.308  267.277  267.926  268.810  268.200  272.774  269.924  267.382  266.976  267.979  267.760  266.940  268.282  269.295  273.047  269.759  268.309  269.223  269.449  267.651  268.655  268.970  269.579  267.657  265.995  268.830  269.044  268.264  267.611  268.724  267.722  268.749  267.021  268.710  267.283  269.991  267.618  267.960  268.125  268.692  266.680  266.815  266.263  270.639  267.020  267.870  267.325  264.170  265.819  267.572  267.386  267.321  270.939  267.465  265.917 
DATE 2017:067:02:40:21 obsn 675 az 173 el 33 freq_MHz  1422.8800 Tsys 231.636 Tant 35.236 vlsr   33.63 glat  0.129 glon 237.618 source G237.5 
Fstart 1421.877 fstop 1423.883 spacing 0.009375 bw    2.400 fbw    2.000 MHz nfreq 256 nsam 5242880 npoint 214 integ     1 sigma    2.289 bsw 0
Spectrum      1 integration periods
 257.821  263.213  260.979  265.485  265.716  263.313  259.939  265.476  267.042  263.454  264.090  263.912  262.345  265.440  267.780  262.071  267.020  266.906  262.016  262.823  264.252  262.363  265.742  265.710  263.325  263.958  267.574  264.314  263.071  264.918  266.909  264.443  265.070  268.161  263.296  266.601  262.275  265.606  263.861  267.178  268.717  261.192  265.759  264.068  264.026  268.379  267.087  263.273  265.354  269.574  269.849  260.195  259.623  261.813  270.282  273.691  266.120  261.859  267.737  265.879  267.623  261.737  271.567  266.844  262.349  262.085  269.043  263.049  263.396  263.736  267.338  264.302  268.427  268.270  266.318  267.749  259.805  262.835  265.765  268.936  270.671  264.064  266.738  269.804  264.469  264.644  266.157  263.177  264.019  265.961  264.298  266.748  264.549  266.718  269.729  290.943  267.206  267.037  266.862  266.113  267.948  264.454  263.537  265.850  269.789  267.464  264.348  264.217  262.055  266.014  267.340  265.234  265.394  266.432  265.719  261.754  265.495  263.380  268.764  263.996  263.064  271.363  271.281  265.671  265.105  268.071  269.975  265.856  262.180  266.550  263.926  262.419  270.821  265.953  271.203  267.901  267.685  266.814  274.577  270.620  267.247  265.280  261.782  264.750  263.751  267.071  266.794  272.308  269.993  265.859  269.107  270.248  268.574  269.596  268.590  274.765  267.752  265.896  269.367  267.624  267.901  266.212  269.478  264.737  270.136  264.532  268.746  267.356  267.239  266.598  263.702  267.568  263.799  266.914  265.999  268.592  263.743  273.628  264.358  266.387  268.140  266.275  269.243  269.784  265.736  266.380  265.159  262.884  271.357  267.968  268.636  261.059  268.442  265.642  271.314  267.187  265.867  267.750  263.144  264.035  269.180  267.823  274.533  268.877  264.163  264.385  265.576  263.316  271.524  268.648  269.097  276.523  266.068  265.450 
DATE 2017:067:02:40:42 obsn 676 az 172 el 30 freq_MHz  1422.8800 Tsys 231.636 Tant 34.025 vlsr   32.48 glat  0.122 glon 240.118 source G240.0 
Fstart 1421.877 fstop 1423.883 spacing 0.009375 bw    2.400 fbw    2.000 MHz nfreq 256 nsam 5242880 npoint 214 integ     2 sigma    1.619 bsw 0
Spectrum      2 integration periods
 262.344  261.949  265.382  262.266  266.076  263.920  263.190  265.190  261.986  262.761  261.787  267.523  259.898  263.220  261.772  260.596  262.002  265.193  269.132  265.254  264.233  267.803  263.959  264.845  264.998  264.686  262.998  266.029  267.737  263.444  263.609  264.139  263.262  262.485  264.282  264.707  264.907  266.534  263.794  263.711  266.931  266.630  261.774  265.403  263.915  264.662  265.188  262.457  263.533  266.005  261.839  262.029  262.077  262.470  262.575  263.060  266.601  263.794  264.732  262.634  266.231  267.395  266.239  264.246  268.445  268.913  267.015  267.752  266.108  263.895  265.243  268.161  266.091  262.793  264.102  267.237  267.846  265.474  265.724  268.409  265.204  261.645  263.974  264.925  260.021  262.476  262.011  265.930  266.199  265.100  266.881  264.737  265.755  264.367  264.173  279.627  265.821  265.642  262.699  267.969  266.342  265.692  265.295  267.718  270.771  263.670  263.247  266.237  263.777  267.137  264.889  267.999  267.460  265.817  266.723  266.938  264.202  266.385  264.085  263.396  264.169  266.798  267.079  268.657  268.043  265.387  264.716  265.133  267.186  267.681  265.622  267.135  273.834  265.118  273.903  264.504  262.266  269.053  269.595  269.172  265.721  265.861  268.187  269.184  263.293  263.580  265.070  265.689  266.804  262.475  265.600  265.021  265.298  264.401  265.431  269.522  265.695  266.184  265.423  263.313  267.672  267.379  267.233  266.523  268.857  262.183  265.547  267.502  263.428  265.410  263.267  265.335  264.148  266.121  265.845  265.507  269.619  266.171  266.668  265.300  262.265  264.463  262.267  265.892  265.159  265.360  263.786  266.300  264.794  263.548  266.003  264.157  262.309  270.064  270.364  263.677  264.801  265.050  263.516  265.991  266.631  265.898  267.534  265.363  265.554  264.115  265.710  262.231  262.297  262.594  260.664  266.708  264.124  263.329 
DATE 2017:067:02:41:04 obsn 677 az 171 el 28 freq_MHz  1422.8800 Tsys 231.636 Tant 41.948 vlsr   31.28 glat  0.114 glon 242.618 source G242.5 
Fstart 1421.877 fstop 1423.883 spacing 0.009375 bw    2.400 fbw    2.000 MHz nfreq 256 nsam 5242880 npoint 214 integ     3 sigma    1.322 bsw 0
Spectrum      3 integration periods
 269.909  267.727  274.932  270.672  271.376  269.991  272.704  270.761  268.478  267.373  270.863  276.839  268.574  270.032  271.026  271.068  270.982  269.237  271.250  271.972  274.088  270.575  269.836  273.790  271.624  270.110  270.342  272.291  275.327  273.311  269.660  271.863  277.740  270.598  271.899  268.560  271.814  269.409  270.761  271.999  277.476  278.300  272.156  272.531  272.514  272.460  273.138  268.121  271.307  277.124  269.469  273.496  270.844  272.003  273.545  271.525  273.397  272.535  275.539  271.455  271.818  270.417  279.965  273.864  272.436  271.563  272.562  272.765  271.513  271.287  277.337  271.781  271.643  269.638  270.753  267.628  270.253  269.890  272.023  277.534  268.079  271.376  271.111  268.161  273.567  270.356  268.901  277.687  273.276  273.129  270.371  271.592  274.566  270.860  272.281  286.514  274.008  269.866  272.374  272.430  278.885  270.246  271.264  273.994  273.918  272.836  271.987  273.162  272.399  277.095  274.202  270.863  268.309  269.588  270.196  274.153  270.652  280.300  273.347  272.939  272.360  272.368  274.673  272.990  271.905  269.745  278.843  269.905  271.426  273.177  275.160  272.450  279.935  273.467  275.075  271.262  272.053  271.966  276.360  271.538  272.081  273.664  274.551  273.008  268.877  271.819  271.364  279.277  270.529  270.570  271.759  271.458  268.954  272.752  274.199  280.421  278.723  273.061  270.311  271.383  270.051  273.501  274.423  273.619  277.680  270.598  272.293  269.801  274.641  270.568  273.368  271.283  273.804  276.023  269.843  268.971  271.699  273.450  270.500  272.943  273.286  277.000  269.547  273.470  274.663  276.548  270.187  271.094  271.209  271.909  271.238  273.766  271.430  270.015  278.685  275.653  274.703  270.979  273.006  273.182  272.800  269.633  278.358  270.959  271.957  269.213  272.887  272.053  271.625  269.620  271.255  277.946  270.368  270.344 
DATE 2017:067:02:41:25 obsn 678 az 170 el 26 freq_MHz  1422.8800 Tsys 231.636 Tant 44.217 vlsr   30.01 glat  0.107 glon 245.118 source G245.0 
Fstart 1421.877 fstop 1423.883 spacing 0.009375 bw    2.400 fbw    2.000 MHz nfreq 256 nsam 5242880 npoint 214 integ     3 sigma    1.322 bsw 0
Spectrum      3 integration periods
 270.743  273.279  274.380  273.826  273.863  272.406  273.677  273.348  270.346  272.484  275.332  278.114  272.563  273.345  273.143  275.398  274.901  272.306  275.357  275.623  272.370  270.801  275.528  275.238  272.310  270.073  276.565  272.676  273.491  273.309  275.311  276.136  274.094  274.346  274.808  275.267  276.172  276.610  273.362  275.453  274.270  271.249  272.246  274.764  271.870  275.827  277.606  273.064  274.864  276.215  275.480  274.658  274.714  274.075  273.855  271.966  276.679  276.987  278.209  275.388  275.267  274.275  275.545  276.650  274.777  276.545  275.331  274.521  273.274  276.983  275.936  273.736  274.631  271.949  277.977  273.638  272.664  272.481  276.399  278.368  274.414  275.176  276.010  274.986  277.223  274.307  277.124  274.956  274.347  278.139  276.273  276.683  275.655  273.944  275.491  293.129  273.760  276.050  273.123  275.612  277.091  274.819  277.300  276.376  277.112  275.272  277.672  274.576  276.842  279.371  276.901  272.139  278.273  276.440  275.870  273.646  277.777  277.479  273.621  273.442  277.785  275.222  275.500  272.753  274.994  276.111  276.952  277.046  275.135  274.074  272.946  276.629  278.176  276.341  276.837  273.923  274.682  274.648  277.363  274.006  277.811  277.629  275.555  273.969  275.587  274.984  274.457  275.710  276.957  276.913  273.280  276.244  275.980  274.909  275.077  276.671  280.063  271.234  274.102  276.863  275.340  275.305  276.169  275.000  275.711  273.999  274.310  274.457  275.842  271.705  276.822  274.054  274.849  276.662  274.413  274.731  277.078  273.841  274.359  273.589  273.092  272.932  270.878  273.131  277.596  277.292  272.908  277.194  276.069  275.832  274.800  273.911  272.847  274.515  273.307  277.185  275.241  275.077  273.653  272.154  274.923  275.499  277.616  275.411  273.814  275.049  275.055  271.658  274.303  273.558  274.138  277.568  275.554  275.106 
