DATE 2017:067:01:41:52 obsn 570 az 331 el 12 freq_MHz  1422.8800 Tsys 231.636 Tant 40.278 vlsr   -7.56 glat  0.014 glon 100.118 source G100.0 
Fstart 1421.877 fstop 1423.883 spacing 0.009375 bw    2.400 fbw    2.000 MHz nfreq 256 nsam 5242880 npoint 214 integ     8 sigma    0.865 bsw 0
Spectrum      7 integration periods
 312.791  312.960  315.248  313.210  314.820  315.590  314.122  313.614  315.683  314.195  313.790  315.954  312.604  313.427  316.530  315.210  314.783  323.014  315.310  317.411  315.545  317.265  316.610  316.958  318.829  317.172  317.697  317.012  316.191  318.004  318.245  316.652  318.660  317.251  314.520  316.779  317.448  315.859  315.822  317.163  316.355  317.941  317.646  318.087  317.815  315.802  318.986  317.058  316.101  315.773  318.451  318.110  319.474  318.493  315.657  320.265  317.372  317.855  319.105  317.746  315.545  318.138  319.896  319.098  319.850  321.835  319.347  317.437  319.211  318.099  319.158  319.765  317.014  317.605  318.983  317.362  316.808  317.736  319.349  319.180  317.322  318.750  317.428  318.734  316.024  314.518  318.828  319.826  316.951  318.917  316.868  319.052  320.794  318.230  319.667  332.851  320.438  319.454  318.188  319.728  319.387  320.644  320.121  320.655  321.141  319.813  322.321  318.829  320.699  321.111  317.662  321.453  320.410  320.006  320.800  321.997  322.444  321.347  319.882  320.921  321.069  321.107  322.814  321.256  320.602  320.974  318.817  320.511  319.895  319.789  319.849  319.770  324.996  318.520  319.793  321.021  320.968  319.128  319.441  318.186  320.900  321.273  321.454  322.549  320.567  320.245  321.806  325.066  322.065  320.646  320.703  320.959  322.028  323.249  320.688  321.599  322.836  321.702  322.192  321.943  322.457  319.728  322.037  321.068  322.462  321.536  319.411  320.949  322.833  320.492  317.924  318.771  322.963  321.921  321.166  323.701  324.117  322.507  322.239  320.412  321.335  321.651  321.770  321.469  323.817  321.890  321.185  321.416  323.059  320.309  320.562  323.641  322.447  322.433  322.158  321.111  319.340  321.650  321.574  319.535  320.865  321.955  321.906  321.092  320.015  322.453  321.714  321.244  321.935  321.329  321.154  324.185  322.902  322.757 
DATE 2017:067:01:42:14 obsn 571 az 331 el 15 freq_MHz  1422.8800 Tsys 231.636 Tant 40.175 vlsr   -5.74 glat  0.023 glon 102.618 source G102.5 
Fstart 1421.877 fstop 1423.883 spacing 0.009375 bw    2.400 fbw    2.000 MHz nfreq 256 nsam 5242880 npoint 214 integ     7 sigma    0.935 bsw 0
Spectrum      6 integration periods
 265.452  267.993  269.645  269.774  269.677  268.980  270.803  269.501  268.765  268.445  268.811  269.025  268.541  268.366  270.328  271.333  269.887  272.253  269.087  269.523  271.164  270.011  271.403  269.743  270.387  270.924  270.461  269.201  269.563  268.077  269.495  268.833  270.034  270.042  269.505  270.952  269.470  267.616  268.419  269.260  271.021  269.625  268.534  272.467  271.568  270.795  269.342  271.115  268.995  271.017  270.415  273.403  272.865  268.847  270.249  270.753  270.830  270.758  271.185  271.171  269.877  270.843  272.200  270.797  271.247  272.047  272.775  272.054  271.178  271.695  269.984  270.884  270.392  270.235  270.132  270.150  268.323  269.626  269.605  269.519  269.895  269.757  268.908  271.834  271.064  271.412  269.899  272.671  269.731  270.703  270.542  269.869  271.112  269.257  274.517  276.746  270.825  272.504  270.726  271.378  271.276  272.482  272.699  271.922  271.237  273.363  271.631  271.290  273.032  275.160  273.054  271.617  272.944  272.000  273.224  273.250  272.534  272.217  270.052  271.306  271.586  270.694  271.740  273.127  272.854  271.758  271.590  272.042  271.181  272.972  272.286  274.743  275.287  270.209  271.936  270.570  271.910  272.793  272.801  270.409  272.149  272.435  271.403  270.973  273.032  269.197  271.164  273.682  270.464  272.638  273.209  271.778  270.460  271.758  270.513  272.436  273.369  270.771  271.066  271.453  271.264  272.809  270.679  271.581  273.447  274.460  272.959  271.799  272.361  272.707  270.095  273.570  270.351  271.570  271.722  270.536  271.623  273.558  272.773  273.705  271.479  272.425  271.433  270.659  270.639  271.644  272.063  274.176  273.094  272.532  273.269  273.141  272.755  272.528  271.086  272.392  271.215  274.024  269.650  270.317  271.796  272.343  273.188  270.875  270.252  270.351  271.398  271.165  271.375  270.676  272.766  272.911  271.387  272.975 
DATE 2017:067:01:42:35 obsn 572 az 330 el 17 freq_MHz  1422.8800 Tsys 231.636 Tant 40.333 vlsr   -3.91 glat  0.031 glon 105.118 source G105.0 
Fstart 1421.877 fstop 1423.883 spacing 0.009375 bw    2.400 fbw    2.000 MHz nfreq 256 nsam 5242880 npoint 214 integ     8 sigma    0.865 bsw 0
Spectrum      7 integration periods
 266.776  267.095  267.909  269.495  268.688  267.867  267.889  268.881  269.551  267.447  267.057  269.038  267.879  269.924  269.864  269.305  269.563  269.161  268.546  269.552  269.283  269.710  268.811  269.939  269.197  268.210  267.075  268.962  270.194  269.530  270.816  270.501  269.762  269.315  270.098  268.431  269.798  269.581  267.641  269.869  268.890  270.256  268.516  269.763  270.025  269.583  268.895  270.014  268.736  270.720  269.412  270.321  271.560  271.570  270.510  270.461  269.127  269.991  270.658  270.815  270.672  271.066  271.804  271.096  271.003  270.192  270.003  269.787  269.644  270.241  272.487  269.013  269.927  267.871  271.573  269.831  268.797  268.114  269.453  269.419  270.067  269.531  267.854  270.107  269.059  269.219  269.468  270.529  269.906  268.837  268.261  269.159  270.580  270.473  269.154  271.157  271.256  270.329  270.068  270.983  272.178  271.858  270.650  270.639  270.167  271.706  271.908  272.553  273.528  272.717  271.117  271.676  271.341  271.629  272.455  271.289  272.567  272.506  270.739  270.545  268.773  272.158  271.077  273.514  271.671  271.612  273.211  270.802  270.079  269.504  272.358  271.497  270.228  270.352  272.854  270.470  270.054  270.279  271.912  272.512  271.544  270.970  271.666  269.288  269.955  270.925  271.700  270.869  272.057  271.183  272.209  270.526  271.405  269.917  271.836  271.503  271.648  271.527  270.771  270.714  271.499  273.259  270.402  268.690  271.942  270.506  269.893  273.035  271.820  270.409  271.077  274.141  272.334  271.604  272.413  271.183  272.079  271.842  270.216  270.638  273.078  271.738  270.488  270.851  270.328  271.682  271.103  272.009  271.076  271.243  272.684  271.641  272.612  270.628  271.998  271.940  269.634  271.391  271.122  269.752  272.031  269.842  271.269  271.888  271.154  272.683  272.415  272.282  273.302  271.240  271.833  273.960  269.383  271.781 
DATE 2017:067:01:42:56 obsn 573 az 330 el 20 freq_MHz  1422.8800 Tsys 231.636 Tant 37.965 vlsr   -2.07 glat  0.040 glon 107.618 source G107.5 
Fstart 1421.877 fstop 1423.883 spacing 0.009375 bw    2.400 fbw    2.000 MHz nfreq 256 nsam 5242880 npoint 214 integ     8 sigma    0.865 bsw 0
Spectrum      7 integration periods
 265.406  266.964  266.991  267.120  266.868  266.830  269.861  265.352  267.642  267.609  265.192  264.694  268.402  267.559  267.113  267.584  267.185  268.644  268.120  267.452  267.849  268.306  268.982  268.488  269.771  269.097  267.147  267.759  268.712  269.375  268.619  268.202  267.553  267.241  265.794  267.947  267.663  268.826  269.180  268.563  266.770  267.423  267.069  267.267  267.905  269.069  267.316  268.432  267.529  267.976  267.508  267.151  268.012  268.902  267.935  266.982  267.515  267.891  269.259  269.030  269.433  268.415  268.046  269.662  269.391  268.313  267.682  268.384  269.889  269.025  267.080  268.434  267.310  266.094  268.837  269.982  268.085  266.908  267.170  267.510  267.309  267.784  267.922  269.754  268.897  269.053  267.045  268.607  267.131  268.372  268.598  267.460  267.564  270.091  267.475  270.243  269.274  268.965  268.637  269.681  270.759  268.732  268.058  270.441  269.276  268.798  270.412  268.428  268.627  269.735  269.395  268.724  269.299  271.634  268.965  268.642  268.886  269.530  269.149  268.387  268.994  269.015  269.783  270.432  270.629  270.764  270.296  269.611  269.593  269.788  269.510  270.259  270.242  265.679  268.313  269.164  268.489  268.928  270.241  270.432  269.737  268.609  268.165  268.966  267.685  267.651  269.426  271.082  270.026  269.423  271.004  269.295  270.160  269.120  271.322  269.129  269.477  270.115  270.419  269.158  268.828  271.688  270.151  270.094  270.361  269.643  269.088  270.889  269.074  270.899  269.518  268.398  269.157  268.186  269.674  268.838  269.066  269.761  268.964  269.997  269.997  269.195  269.641  271.334  272.466  270.465  271.662  272.014  269.880  268.669  270.720  270.471  270.173  271.847  270.916  273.193  271.254  272.108  270.118  270.836  270.629  270.576  270.061  271.263  269.512  270.958  270.784  269.573  272.227  270.500  269.890  271.440  271.035  271.510 
DATE 2017:067:01:43:17 obsn 574 az 329 el 22 freq_MHz  1422.8800 Tsys 231.636 Tant 39.020 vlsr   -0.23 glat  0.049 glon 110.118 source G110.0 
Fstart 1421.877 fstop 1423.883 spacing 0.009375 bw    2.400 fbw    2.000 MHz nfreq 256 nsam 5242880 npoint 214 integ     9 sigma    0.809 bsw 0
Spectrum      8 integration periods
 267.571  267.147  270.316  267.625  268.422  268.360  268.937  267.390  268.649  268.821  267.988  266.891  267.543  268.862  267.119  268.405  267.245  266.641  267.626  269.043  268.986  267.634  267.684  269.270  269.945  268.944  267.508  270.675  269.367  267.387  267.525  266.669  269.327  268.621  269.290  267.128  268.666  269.289  269.813  269.256  269.818  268.850  267.584  266.729  268.370  269.322  268.669  267.577  267.775  269.594  267.782  268.555  269.171  267.282  268.145  268.102  268.637  268.472  270.076  270.082  269.117  268.001  270.538  268.742  271.792  268.469  269.990  269.993  268.218  269.585  267.651  269.741  269.658  267.345  268.376  268.470  269.212  268.091  269.787  270.841  270.512  268.320  268.646  267.291  269.863  268.469  267.976  268.034  267.271  267.315  269.080  270.489  270.453  268.054  269.267  271.716  269.282  270.040  269.203  268.671  269.849  268.990  271.301  270.721  270.103  269.597  269.524  268.875  269.939  268.959  269.308  270.572  270.320  270.022  269.474  270.210  269.927  271.167  271.165  270.430  270.871  269.711  270.514  270.248  269.060  270.546  269.322  268.878  269.607  270.446  269.394  270.848  271.212  268.228  271.089  269.776  270.263  270.504  268.686  270.544  271.145  269.828  272.863  272.006  271.335  270.474  269.091  271.595  271.015  272.284  269.836  271.441  269.339  272.151  271.946  271.426  271.334  270.557  270.030  270.813  271.255  272.327  272.171  270.701  271.923  271.627  271.149  271.454  270.403  271.423  273.451  271.392  272.101  272.433  272.007  270.716  271.291  270.396  271.365  272.692  271.385  271.509  272.068  271.814  272.461  271.999  270.548  272.622  272.230  273.167  270.359  271.310  271.674  270.635  272.053  272.931  272.007  272.811  272.829  271.356  271.968  271.591  272.232  271.748  272.811  270.851  272.099  273.505  270.781  272.429  270.655  272.052  272.447  271.123 
DATE 2017:067:01:43:38 obsn 575 az 329 el 24 freq_MHz  1422.8800 Tsys 231.636 Tant 40.120 vlsr    1.61 glat  0.058 glon 112.617 source G112.5 
Fstart 1421.877 fstop 1423.883 spacing 0.009375 bw    2.400 fbw    2.000 MHz nfreq 256 nsam 5242880 npoint 214 integ    10 sigma    0.763 bsw 0
Spectrum      9 integration periods
 267.251  267.147  268.977  268.684  268.107  268.839  267.305  268.752  267.404  266.751  267.130  268.936  268.574  267.885  268.324  268.867  269.259  270.059  267.852  269.716  269.402  269.220  269.044  268.712  268.638  269.106  269.387  268.887  270.273  269.231  268.588  269.928  269.696  271.234  268.374  269.147  267.863  270.192  268.826  268.667  269.606  269.078  268.825  270.172  268.808  269.893  267.703  269.645  268.614  268.405  268.470  268.802  270.132  268.580  269.181  269.666  269.432  268.780  268.089  268.381  268.648  269.712  270.246  269.898  268.582  268.317  270.026  270.302  269.264  268.567  270.828  269.383  268.658  269.808  269.115  268.351  269.235  269.287  271.248  267.585  269.005  269.479  268.780  269.981  268.630  269.224  269.316  268.532  270.042  270.686  270.711  269.891  269.507  270.188  270.391  270.208  268.381  268.887  270.407  271.798  269.074  270.304  270.621  269.576  268.951  269.716  271.009  269.782  271.365  270.995  270.915  269.434  270.673  271.250  271.143  271.391  271.073  272.789  269.714  269.693  271.424  269.931  271.608  270.792  271.400  270.521  270.936  271.793  270.069  270.284  269.653  271.320  270.357  270.882  271.384  270.422  270.720  269.189  270.992  270.889  270.358  271.474  272.439  271.322  273.296  271.173  272.857  271.643  271.480  269.883  272.705  271.155  271.735  271.037  270.077  271.564  271.038  271.741  271.338  272.108  272.022  271.069  271.595  271.076  271.254  271.357  271.064  271.501  273.421  272.169  272.524  271.699  270.809  271.421  271.984  272.026  272.439  272.411  271.745  273.705  272.536  274.205  273.701  272.021  271.040  273.524  270.951  271.361  273.587  273.238  270.577  273.031  272.017  272.726  272.135  272.628  272.116  271.279  272.332  270.010  273.073  271.858  274.692  273.412  273.539  272.254  272.142  272.866  272.214  271.990  272.181  273.784  273.029  272.650 
DATE 2017:067:01:44:00 obsn 576 az 329 el 27 freq_MHz  1422.8800 Tsys 231.636 Tant 40.641 vlsr    3.44 glat  0.066 glon 115.117 source G115.0 
Fstart 1421.877 fstop 1423.883 spacing 0.009375 bw    2.400 fbw    2.000 MHz nfreq 256 nsam 5242880 npoint 214 integ    10 sigma    0.763 bsw 0
Spectrum      9 integration periods
 266.433  267.298  270.798  269.192  270.003  269.422  268.863  269.656  270.175  270.110  268.544  268.883  267.919  269.292  270.599  269.227  269.806  269.112  269.694  269.548  268.548  270.642  269.276  270.646  268.927  269.904  269.429  270.012  270.876  269.655  269.664  269.516  270.557  268.072  269.366  269.433  269.273  270.037  269.132  269.071  269.397  270.279  268.950  270.347  268.270  269.625  269.243  270.152  269.446  269.269  268.366  269.860  269.364  269.645  269.550  270.512  270.465  270.223  269.836  269.204  269.382  270.069  271.952  269.845  271.595  270.810  270.108  270.099  271.684  271.676  271.715  271.645  270.418  269.466  270.087  268.134  269.880  269.606  270.491  269.918  270.118  271.329  270.190  269.672  269.881  269.949  270.793  269.877  269.909  269.544  271.796  271.298  271.536  270.367  270.130  272.436  270.888  269.882  270.649  272.704  272.117  271.228  272.823  271.224  272.501  271.361  272.650  272.784  270.632  271.737  271.130  273.139  271.847  270.857  271.921  271.889  271.928  272.054  272.215  273.138  271.632  272.680  271.729  271.612  272.291  272.062  269.848  271.677  271.701  271.814  271.333  271.779  271.822  270.144  272.203  272.543  271.407  271.586  271.588  273.637  272.467  273.165  271.106  270.872  270.747  272.034  273.674  272.796  272.833  273.651  271.923  272.426  273.166  272.827  272.184  275.087  273.335  273.060  271.828  272.463  273.304  273.115  271.007  271.833  272.607  273.627  272.730  272.279  272.439  270.935  271.141  273.108  274.115  272.947  271.656  275.142  273.782  274.795  272.394  273.509  273.847  273.357  275.300  274.159  273.458  276.441  274.446  270.976  271.183  273.212  272.861  272.329  274.312  274.363  274.663  275.311  272.098  274.619  274.011  273.398  272.412  273.857  274.698  273.528  272.831  272.160  272.090  272.012  273.052  272.478  274.376  274.134  274.347  274.350 
DATE 2017:067:01:44:21 obsn 577 az 328 el 29 freq_MHz  1422.8800 Tsys 231.636 Tant 39.490 vlsr    5.28 glat  0.075 glon 117.617 source G117.5 
Fstart 1421.877 fstop 1423.883 spacing 0.009375 bw    2.400 fbw    2.000 MHz nfreq 256 nsam 5242880 npoint 214 integ    11 sigma    0.724 bsw 0
Spectrum     10 integration periods
 264.802  266.116  267.317  267.884  267.417  267.594  267.354  267.874  267.577  267.700  266.603  266.035  267.527  267.226  268.636  267.260  268.147  266.331  268.730  268.229  269.500  269.693  269.694  268.806  268.946  268.737  267.825  267.417  268.692  268.830  268.858  268.383  266.325  268.739  266.862  267.566  268.344  266.216  268.259  267.428  267.211  268.446  268.526  267.888  267.211  268.511  267.735  268.176  269.236  267.158  266.905  268.173  268.017  267.546  268.086  269.486  269.536  268.453  268.437  269.855  269.842  268.810  269.223  269.571  269.014  269.599  269.059  267.559  267.597  268.624  267.342  269.882  268.325  268.360  268.477  267.519  266.830  268.304  268.698  268.791  269.777  269.456  268.686  268.130  267.762  268.801  270.447  269.667  269.984  270.381  269.467  270.145  269.291  270.255  270.086  270.576  270.621  270.434  270.392  269.534  271.837  270.259  270.668  269.921  270.443  269.285  270.593  271.371  270.439  272.161  271.219  272.172  270.285  270.063  269.759  271.170  271.524  270.508  271.540  271.135  270.529  271.104  271.992  271.091  271.617  272.118  271.879  269.267  271.615  270.914  271.120  271.616  271.323  271.229  271.922  271.823  269.641  271.791  270.252  272.329  273.022  270.508  272.513  271.202  272.536  270.964  271.354  273.180  269.743  271.764  271.149  272.125  271.623  272.776  270.466  272.917  272.880  271.022  271.692  272.146  271.391  272.723  273.019  271.076  271.399  270.978  273.307  271.394  272.902  272.071  271.684  272.431  272.364  271.829  271.903  271.695  271.971  272.898  272.514  273.307  273.462  273.986  273.145  272.712  273.187  273.879  273.818  274.004  274.079  274.198  272.984  274.222  272.438  271.561  272.606  273.237  273.760  273.394  273.798  273.225  273.287  274.904  272.609  272.404  271.882  271.543  272.834  274.299  273.343  274.581  273.993  274.251  272.114  272.099 
DATE 2017:067:01:44:50 obsn 578 az 327 el 34 freq_MHz  1422.8800 Tsys 231.636 Tant 39.314 vlsr    8.90 glat  0.091 glon 122.617 source G122.5 
Fstart 1421.877 fstop 1423.883 spacing 0.009375 bw    2.400 fbw    2.000 MHz nfreq 256 nsam 5242880 npoint 214 integ     1 sigma    2.289 bsw 0
Spectrum      1 integration periods
 266.451  262.759  268.449  262.577  263.793  268.626  268.103  268.074  263.654  263.938  257.323  265.689  270.499  269.280  265.887  263.475  264.538  263.718  267.216  264.828  267.684  267.556  270.002  267.285  265.250  266.322  268.759  268.891  266.394  271.384  266.530  268.087  266.636  268.967  265.494  267.470  265.662  269.188  269.223  265.678  265.141  270.345  265.161  266.953  266.101  265.823  268.619  265.320  268.486  267.715  266.161  269.214  266.837  265.298  267.632  265.494  266.123  266.336  268.823  264.968  266.792  269.706  271.812  269.941  271.540  270.139  271.666  269.757  267.232  263.905  271.712  267.580  270.152  266.754  267.677  265.976  269.716  268.884  267.771  274.302  264.085  265.040  269.626  265.084  270.632  273.427  269.524  269.072  267.815  267.867  271.708  272.552  271.268  266.236  269.879  277.034  268.680  273.044  276.655  272.978  269.791  273.433  269.560  271.832  270.788  271.765  274.342  270.894  272.657  270.125  270.363  274.646  270.650  269.656  272.634  271.185  268.542  270.255  266.721  274.643  274.053  271.938  273.072  274.470  276.129  274.309  272.768  271.903  271.093  268.498  270.457  273.174  271.087  272.292  266.962  273.384  273.159  269.453  270.471  271.367  273.540  272.449  274.022  271.871  273.511  271.536  268.855  272.688  273.012  272.866  270.157  272.421  270.401  274.158  272.047  278.312  273.999  273.307  271.906  274.738  269.851  265.465  271.479  270.716  274.186  272.118  267.891  270.747  272.088  272.289  273.525  274.815  277.363  274.111  271.393  272.856  275.055  273.035  272.121  274.881  270.061  272.541  273.793  276.470  276.804  270.368  271.988  275.640  275.771  273.240  273.715  273.499  272.514  275.254  271.831  274.890  276.009  275.050  276.808  275.162  276.043  279.078  275.471  273.415  274.756  272.373  270.962  274.073  277.323  274.605  276.686  270.385  271.093  276.873 
DATE 2017:067:01:45:11 obsn 579 az 326 el 37 freq_MHz  1422.8800 Tsys 231.636 Tant 39.420 vlsr   10.69 glat  0.099 glon 125.117 source G125.0 
Fstart 1421.877 fstop 1423.883 spacing 0.009375 bw    2.400 fbw    2.000 MHz nfreq 256 nsam 5242880 npoint 214 integ     1 sigma    2.289 bsw 0
Spectrum      1 integration periods
 265.194  269.277  264.933  270.191  269.788  270.082  269.178  271.094  268.117  267.426  263.886  268.755  262.997  266.174  265.583  268.346  267.299  267.237  266.191  267.233  262.782  271.432  264.874  265.021  271.257  267.856  265.963  269.355  268.100  266.868  270.304  264.820  270.696  270.430  266.776  269.405  267.933  262.460  267.472  270.158  268.651  266.708  266.931  265.966  268.860  264.797  266.260  265.972  270.365  271.566  265.372  269.126  268.935  266.986  269.944  268.537  270.001  270.754  264.982  264.372  271.112  269.442  271.433  268.614  270.099  271.313  269.521  272.269  265.803  264.913  267.599  275.978  267.172  264.829  269.264  269.736  269.307  270.744  269.475  268.252  272.247  262.419  268.376  269.149  268.043  267.180  269.107  264.871  272.198  270.278  268.315  268.081  270.651  270.745  270.957  271.192  275.964  271.268  272.168  272.145  271.821  269.044  269.458  270.234  267.605  272.844  273.314  274.327  273.786  270.312  265.468  271.686  270.393  272.683  276.939  273.820  274.439  277.047  270.194  271.946  273.958  267.396  270.727  271.312  269.717  271.266  268.165  272.856  266.131  267.958  273.951  273.290  271.491  273.696  270.522  269.625  272.745  267.407  273.689  272.953  273.864  274.766  274.485  271.591  269.274  269.779  273.390  271.212  280.062  273.017  268.907  276.210  269.780  274.491  273.449  275.339  275.916  270.925  272.653  275.641  270.428  273.445  268.169  270.721  275.846  274.528  271.459  275.777  275.703  268.612  276.243  266.183  272.784  269.114  271.916  267.662  272.847  277.560  272.201  271.932  273.527  276.892  274.189  276.224  272.080  272.861  272.070  273.418  277.877  276.459  275.187  275.450  271.799  269.236  272.949  276.244  273.214  274.925  268.649  271.733  276.465  274.594  266.520  270.317  278.029  270.839  273.721  272.823  273.309  273.746  269.504  274.346  269.604  269.436 
DATE 2017:067:01:45:32 obsn 580 az 326 el 39 freq_MHz  1422.8800 Tsys 231.636 Tant 40.387 vlsr   12.46 glat  0.107 glon 127.617 source G127.5 
Fstart 1421.877 fstop 1423.883 spacing 0.009375 bw    2.400 fbw    2.000 MHz nfreq 256 nsam 5242880 npoint 214 integ     2 sigma    1.619 bsw 0
Spectrum      2 integration periods
 268.709  265.847  269.808  267.089  270.014  268.372  271.795  269.906  268.039  268.816  268.173  267.936  267.476  267.343  269.242  269.425  270.747  270.212  266.686  268.119  267.374  269.956  269.255  267.212  266.302  269.177  272.246  273.277  268.332  266.506  269.876  267.860  265.466  264.623  269.615  267.966  267.398  266.049  272.554  267.418  269.779  268.390  268.138  267.681  265.593  267.385  269.604  267.101  268.828  266.839  267.626  266.207  271.649  268.776  273.362  268.609  271.105  270.409  267.921  269.269  269.310  270.067  271.216  270.498  269.711  269.892  274.478  268.565  266.862  267.359  271.242  273.306  272.302  269.686  268.655  268.162  268.919  264.168  266.509  267.453  265.865  270.586  268.149  269.871  270.054  269.381  267.809  271.381  270.482  272.476  269.192  267.338  270.382  271.503  268.111  271.467  271.382  273.502  271.214  270.431  272.666  268.481  272.923  269.381  272.072  270.956  267.607  270.883  272.849  272.707  272.714  269.850  272.608  267.605  274.519  272.989  271.268  272.308  270.742  271.998  274.262  269.486  274.026  273.163  273.242  271.926  269.166  272.452  267.371  272.142  268.442  272.426  272.583  268.096  272.745  272.156  272.948  268.852  268.634  273.163  272.438  272.408  271.379  272.806  274.214  273.280  272.646  275.478  275.177  273.471  277.313  273.003  273.535  272.501  273.823  273.174  272.960  276.733  275.181  272.445  275.200  274.807  272.544  272.763  272.798  273.162  272.984  275.344  272.296  273.514  272.994  272.257  272.756  273.802  272.837  271.028  272.312  274.064  273.463  274.506  273.721  277.406  271.656  273.300  275.278  272.045  272.739  276.773  273.408  272.990  275.408  276.889  273.398  275.674  276.978  273.825  274.820  275.892  275.278  274.661  276.498  274.392  270.901  273.058  272.592  275.171  277.609  274.214  275.305  274.341  275.037  273.610  274.906  275.429 
DATE 2017:067:01:45:54 obsn 581 az 325 el 41 freq_MHz  1422.8800 Tsys 231.636 Tant 41.201 vlsr   14.21 glat  0.114 glon 130.117 source G130.0 
Fstart 1421.877 fstop 1423.883 spacing 0.009375 bw    2.400 fbw    2.000 MHz nfreq 256 nsam 5242880 npoint 214 integ     3 sigma    1.322 bsw 0
Spectrum      3 integration periods
 269.114  270.292  271.404  268.672  273.215  272.994  270.696  269.934  272.042  271.039  269.426  272.111  268.469  272.728  273.093  273.281  270.881  273.627  271.298  272.238  269.659  271.277  271.169  269.051  272.330  272.693  272.468  271.989  270.609  271.866  272.651  270.886  270.784  271.036  270.759  269.513  272.182  269.300  269.595  269.293  272.113  271.251  269.347  268.169  271.227  270.739  273.090  271.173  271.659  272.762  269.489  269.363  271.226  270.712  269.976  271.030  268.880  270.777  270.344  272.060  271.956  270.680  269.429  271.819  268.796  270.148  268.150  271.602  268.310  270.661  273.533  271.541  268.515  271.643  274.123  272.724  271.330  272.153  271.811  270.647  271.624  268.900  271.255  270.941  270.825  272.712  270.230  272.793  269.991  269.228  271.175  270.707  270.344  269.312  272.652  272.695  270.789  269.488  271.228  267.636  271.122  271.699  273.494  269.894  270.571  272.401  271.608  270.753  272.303  273.206  271.536  271.277  272.504  271.123  273.235  275.281  271.466  274.531  270.505  273.999  269.584  273.708  275.429  271.818  274.415  273.154  272.207  274.001  272.187  270.860  273.071  271.624  273.616  273.607  269.440  269.667  271.727  273.799  273.069  272.527  274.545  270.698  271.839  274.893  271.687  274.880  269.143  273.901  273.834  272.204  273.725  274.181  272.489  274.276  272.102  274.771  276.477  277.557  275.963  271.930  272.910  275.188  274.751  274.153  274.301  273.266  274.067  274.264  275.264  273.003  275.097  273.927  274.811  272.706  277.355  274.434  274.466  276.181  274.893  275.547  276.132  276.884  276.202  274.601  276.382  277.105  274.968  277.335  273.561  274.514  277.139  275.443  279.694  275.644  275.386  274.670  274.304  278.042  278.413  274.417  272.546  273.626  275.000  273.966  272.360  273.841  273.831  276.670  274.200  272.998  275.619  276.430  273.817  275.385 
DATE 2017:067:01:46:15 obsn 582 az 324 el 44 freq_MHz  1422.8800 Tsys 231.636 Tant 42.405 vlsr   15.93 glat  0.122 glon 132.617 source G132.5 
Fstart 1421.877 fstop 1423.883 spacing 0.009375 bw    2.400 fbw    2.000 MHz nfreq 256 nsam 5242880 npoint 214 integ     3 sigma    1.322 bsw 0
Spectrum      3 integration periods
 268.778  270.683  274.466  271.452  269.159  269.911  270.544  269.739  269.159  270.327  271.083  267.548  268.222  267.481  271.192  271.821  269.442  269.971  273.165  269.900  269.747  273.441  272.160  270.606  268.632  270.321  268.449  272.503  270.884  274.625  270.084  267.658  270.308  271.136  269.696  270.885  270.818  273.857  271.358  271.674  270.696  270.062  268.859  268.349  274.215  274.650  269.899  273.577  269.484  272.091  269.785  269.737  267.700  272.330  270.038  270.052  272.472  269.995  268.093  271.154  271.997  271.495  269.064  269.225  270.133  272.006  272.958  272.578  269.860  269.516  271.987  271.854  272.162  269.659  271.108  272.012  269.943  273.079  270.624  270.197  270.617  271.575  270.665  268.780  274.882  272.081  271.503  269.407  272.894  271.354  269.980  274.673  273.409  268.851  270.936  275.079  274.791  273.729  272.039  274.522  273.262  274.165  273.938  270.932  271.440  271.437  271.019  269.530  271.887  274.128  273.602  273.144  271.447  274.436  272.496  272.654  272.905  274.861  274.010  274.564  273.292  274.946  273.763  272.859  274.280  273.517  275.534  273.720  271.462  272.751  275.446  272.021  271.955  274.324  274.572  271.943  275.106  275.148  273.690  272.558  271.414  274.947  272.013  273.423  273.837  275.100  275.766  277.753  277.282  273.450  276.268  274.631  272.390  275.256  275.025  274.802  275.789  274.844  271.831  275.021  277.237  275.378  274.953  277.937  277.211  274.157  277.360  277.417  275.818  275.069  277.761  275.794  277.532  276.189  272.841  273.953  276.372  276.821  277.097  277.100  274.819  276.228  277.424  278.862  279.927  275.832  277.940  276.044  275.106  277.688  278.125  275.297  276.344  277.149  275.214  278.092  274.865  278.278  275.620  279.662  277.106  276.250  276.205  275.993  277.671  275.568  277.688  279.246  277.795  274.260  277.050  275.595  276.669  276.470 
DATE 2017:067:01:46:36 obsn 583 az 324 el 46 freq_MHz  1422.8800 Tsys 231.636 Tant 42.225 vlsr   17.62 glat  0.129 glon 135.117 source G135.0 
Fstart 1421.877 fstop 1423.883 spacing 0.009375 bw    2.400 fbw    2.000 MHz nfreq 256 nsam 5242880 npoint 214 integ     4 sigma    1.145 bsw 0
Spectrum      4 integration periods
 267.243  269.468  269.895  269.710  269.160  270.122  269.458  271.007  269.527  272.011  270.067  267.941  266.061  268.872  268.975  267.869  268.320  270.197  268.275  269.045  268.467  271.107  269.520  269.780  270.275  270.327  271.974  270.082  270.456  268.488  271.255  272.234  271.319  270.068  272.406  270.582  270.212  273.944  271.520  272.069  272.209  273.456  273.079  271.373  271.274  272.737  273.507  270.092  269.324  271.264  271.252  269.996  271.696  270.504  271.868  272.254  271.379  271.412  269.368  270.947  272.563  271.058  271.242  269.935  268.629  270.035  269.526  269.787  268.724  270.584  273.732  271.096  268.429  270.270  268.430  272.175  268.341  268.898  269.940  270.473  270.019  271.092  272.669  270.550  270.255  271.139  270.967  270.446  270.443  272.577  271.993  272.501  272.730  273.236  272.712  282.803  273.899  274.659  272.718  273.653  274.911  275.032  275.143  276.135  275.418  272.258  273.009  274.142  272.439  275.673  273.323  276.752  273.343  271.284  275.184  275.673  274.812  272.827  276.614  273.650  276.439  273.679  273.734  273.770  271.794  272.778  272.384  272.247  274.058  275.563  274.771  275.109  275.539  275.471  275.624  273.548  275.287  273.078  273.879  272.955  274.932  275.566  276.173  276.593  276.760  276.730  276.746  275.712  275.382  276.765  276.482  273.728  276.908  275.705  275.896  277.516  279.235  278.390  275.072  276.295  274.783  276.579  274.874  274.742  276.099  275.255  276.841  277.575  276.530  273.898  276.033  278.049  274.994  275.098  275.056  275.302  275.658  276.773  277.945  280.614  276.807  281.175  278.658  279.127  280.327  279.703  277.688  278.341  276.776  277.759  279.329  277.151  278.576  278.729  278.879  279.776  280.766  278.343  281.433  279.312  278.584  279.643  278.101  278.595  279.467  277.672  278.328  279.689  277.897  275.573  277.964  277.755  280.271  280.431 
DATE 2017:067:01:46:57 obsn 584 az 323 el 49 freq_MHz  1422.8800 Tsys 231.636 Tant 32.791 vlsr   19.27 glat  0.136 glon 137.617 source G137.5 
Fstart 1421.877 fstop 1423.883 spacing 0.009375 bw    2.400 fbw    2.000 MHz nfreq 256 nsam 5242880 npoint 214 integ     4 sigma    1.145 bsw 0
Spectrum      4 integration periods
 258.268  258.115  259.700  259.876  259.075  258.087  261.179  260.315  258.077  257.578  259.390  259.123  259.742  259.768  258.825  260.160  258.949  257.415  259.792  258.505  259.228  260.933  260.463  261.201  261.065  260.431  262.172  260.369  261.067  261.135  260.334  259.606  262.033  258.533  260.682  258.689  258.746  260.353  260.254  257.815  261.831  260.163  259.694  259.362  262.262  261.495  257.930  260.159  259.030  259.059  259.180  260.660  259.854  260.023  260.774  260.119  259.655  261.484  260.679  260.679  262.061  259.949  260.365  261.971  259.811  259.952  259.064  259.232  260.965  261.121  260.736  259.800  258.860  259.982  260.619  262.374  260.753  261.985  260.279  259.039  260.116  260.617  261.842  262.011  260.823  261.850  263.322  262.928  262.211  261.434  261.336  261.912  262.257  262.110  264.020  268.508  263.092  262.314  261.649  263.337  263.429  262.966  264.284  263.348  263.648  264.060  263.754  265.888  264.894  264.617  267.285  264.529  264.001  266.502  263.965  266.645  264.213  267.231  266.493  265.379  263.780  265.996  263.770  265.008  265.764  264.404  264.269  266.517  264.946  263.809  262.529  264.100  264.741  264.548  262.873  263.818  264.859  265.758  265.139  265.480  266.078  266.992  264.523  265.232  266.701  265.073  269.657  267.506  267.719  266.834  267.222  266.616  267.130  265.616  269.100  267.978  265.783  266.684  266.399  267.765  266.945  266.068  267.854  265.252  265.041  267.433  266.267  265.613  268.228  265.587  266.403  264.667  267.488  266.881  268.173  267.293  266.851  268.159  268.712  269.588  268.004  269.878  268.272  267.074  269.459  268.943  266.373  266.681  270.451  267.548  265.529  265.524  266.638  268.089  266.997  267.219  268.776  268.436  268.754  265.450  267.628  268.824  271.478  268.874  270.369  267.169  268.969  266.319  268.248  268.718  268.127  265.689  268.430  265.011 
DATE 2017:067:01:47:18 obsn 585 az 322 el 51 freq_MHz  1422.8800 Tsys 231.636 Tant 31.487 vlsr   20.89 glat  0.142 glon 140.117 source G140.0 
Fstart 1421.877 fstop 1423.883 spacing 0.009375 bw    2.400 fbw    2.000 MHz nfreq 256 nsam 5242880 npoint 214 integ     5 sigma    1.024 bsw 0
Spectrum      5 integration periods
 257.316  257.866  259.744  259.090  258.798  257.749  257.723  260.026  261.514  258.886  258.125  258.647  256.340  256.679  258.273  257.632  257.017  257.652  258.991  257.827  258.503  258.972  258.632  259.594  257.848  256.333  258.427  260.683  258.489  256.946  256.180  259.819  256.412  256.475  257.759  259.710  260.132  256.907  259.218  257.707  257.516  255.860  259.722  256.761  258.445  258.709  258.726  259.126  256.771  257.859  257.992  260.471  257.397  259.463  259.851  260.122  259.768  260.705  258.814  258.996  260.224  259.066  259.827  259.878  258.071  259.514  257.928  259.453  257.880  258.604  258.387  257.875  258.542  258.894  258.187  258.405  257.784  258.224  259.214  259.200  262.436  259.523  259.526  259.170  258.590  261.069  260.373  261.650  261.455  261.855  262.152  260.211  261.271  260.137  260.912  269.576  260.333  260.716  262.106  259.999  263.672  261.778  262.108  262.245  261.424  263.322  262.405  262.865  265.149  262.695  263.206  261.179  262.331  263.897  262.224  264.358  265.173  264.784  265.151  265.527  262.044  263.865  264.358  264.254  264.788  264.085  260.358  262.232  262.186  262.153  263.541  262.038  262.832  263.928  262.594  265.099  266.150  263.308  260.969  262.561  263.591  264.636  263.688  266.469  263.347  263.905  264.087  264.832  265.010  266.981  265.159  267.443  263.368  263.534  264.980  266.789  266.110  264.349  265.327  264.896  266.312  265.067  265.961  266.117  266.480  264.520  263.180  265.351  265.950  264.819  265.242  263.499  262.809  265.099  265.729  267.840  267.337  263.875  265.583  264.038  266.051  264.262  266.505  265.254  266.629  266.528  266.299  265.965  265.491  264.119  266.337  267.159  267.878  265.586  266.248  263.366  264.351  264.501  264.192  264.090  264.962  264.189  264.572  266.068  263.011  264.474  266.046  264.451  265.604  264.388  265.769  264.004  265.900  264.835 
DATE 2017:067:01:47:39 obsn 586 az 321 el 53 freq_MHz  1422.8800 Tsys 231.636 Tant 32.438 vlsr   22.47 glat  0.149 glon 142.617 source G142.5 
Fstart 1421.877 fstop 1423.883 spacing 0.009375 bw    2.400 fbw    2.000 MHz nfreq 256 nsam 5242880 npoint 214 integ     5 sigma    1.024 bsw 0
Spectrum      5 integration periods
 259.733  259.877  260.681  262.175  261.933  264.550  263.233  262.693  263.031  261.182  260.648  260.984  263.454  261.729  262.115  262.338  261.250  261.792  261.423  262.677  262.095  262.816  262.637  263.428  262.727  262.219  262.151  262.191  260.350  261.239  262.338  261.856  259.836  262.509  261.953  261.550  263.873  263.223  262.794  261.228  260.960  261.253  262.495  262.936  260.664  261.942  265.582  262.826  261.966  262.189  261.265  261.412  261.087  262.359  261.286  263.656  262.636  263.381  261.928  260.877  262.235  263.769  261.861  264.407  262.921  261.936  263.060  264.928  262.129  262.631  262.442  262.245  262.579  263.204  263.531  261.572  263.444  261.662  262.693  263.873  262.587  263.588  261.283  262.560  263.144  262.517  263.644  262.159  261.970  263.875  262.352  262.383  262.800  261.831  262.639  265.867  262.840  263.144  262.032  263.817  263.518  262.091  265.640  263.036  263.465  263.476  265.295  263.089  264.975  264.674  264.851  264.636  266.439  265.501  267.576  264.416  265.116  262.481  264.942  266.045  266.136  265.741  266.452  265.817  267.016  263.836  264.593  266.163  263.611  265.184  264.755  265.968  267.054  264.282  265.994  263.071  266.446  267.068  265.453  265.296  263.724  265.112  265.520  262.194  263.610  263.953  265.288  265.173  264.454  264.750  264.344  265.564  263.733  264.759  267.116  264.788  263.915  266.327  267.306  265.025  266.814  266.617  267.687  264.134  265.039  265.439  267.827  265.986  267.685  264.945  266.771  267.045  265.937  266.199  268.944  266.461  269.323  267.898  266.670  269.394  268.285  268.561  270.728  268.480  268.233  268.558  268.762  268.961  267.538  269.409  270.265  268.828  267.066  268.420  265.422  265.554  267.799  267.809  266.388  267.651  264.201  267.153  267.422  266.955  265.000  266.533  267.490  265.611  267.204  266.273  265.051  270.559  269.399  266.097 
DATE 2017:067:01:48:01 obsn 587 az 319 el 56 freq_MHz  1422.8800 Tsys 231.636 Tant 35.925 vlsr   24.01 glat  0.155 glon 145.117 source G145.0 
Fstart 1421.877 fstop 1423.883 spacing 0.009375 bw    2.400 fbw    2.000 MHz nfreq 256 nsam 5242880 npoint 214 integ     7 sigma    0.935 bsw 0
Spectrum      6 integration periods
 261.871  262.792  265.046  263.273  266.166  264.480  265.662  263.531  265.038  263.785  262.786  263.999  264.782  263.555  264.416  264.775  263.756  266.702  266.044  266.852  266.595  265.588  266.672  264.879  265.824  267.968  266.495  265.140  267.131  265.904  265.554  264.527  267.382  266.698  264.901  265.464  265.507  267.170  267.130  266.384  266.511  265.844  266.889  265.849  265.013  266.012  264.595  266.932  264.445  268.040  266.094  266.021  267.034  265.071  264.535  263.590  264.853  264.037  265.498  266.294  267.188  263.703  264.194  264.621  264.961  265.572  265.147  265.575  266.822  266.237  266.646  268.732  267.742  265.489  264.525  263.164  266.281  265.161  265.706  266.432  265.456  265.745  266.996  265.626  265.575  265.043  266.964  264.524  267.917  265.284  264.526  266.704  265.819  265.889  266.866  274.044  265.657  268.436  266.474  267.240  266.329  265.715  265.934  266.492  264.478  266.761  265.474  267.162  265.869  266.887  265.583  266.689  266.160  264.704  265.201  268.076  265.448  266.415  268.776  267.696  267.315  266.174  267.253  266.623  266.599  268.439  266.727  267.655  268.077  265.149  267.678  267.866  267.685  267.394  269.517  267.700  267.993  267.741  269.483  269.393  267.638  268.118  268.969  268.300  268.045  267.493  267.034  270.165  268.084  268.322  267.407  265.974  269.501  266.335  268.494  266.094  263.871  267.179  266.659  266.400  264.942  268.200  268.578  266.421  266.582  267.283  267.908  266.139  267.382  267.825  266.402  267.281  268.895  267.552  268.644  269.217  268.770  267.536  267.618  268.486  269.498  270.547  269.800  271.671  268.227  269.078  269.779  268.994  269.866  272.227  269.621  271.024  271.159  271.791  270.940  270.930  268.212  269.424  269.495  269.427  268.695  266.872  268.263  268.455  267.178  268.698  267.495  269.634  266.334  266.875  268.894  269.647  267.943  269.892 
DATE 2017:067:01:48:22 obsn 588 az 318 el 58 freq_MHz  1422.8800 Tsys 231.636 Tant 38.918 vlsr   25.50 glat  0.161 glon 147.617 source G147.5 
Fstart 1421.877 fstop 1423.883 spacing 0.009375 bw    2.400 fbw    2.000 MHz nfreq 256 nsam 5242880 npoint 214 integ     8 sigma    0.865 bsw 0
Spectrum      7 integration periods
 266.230  265.776  265.701  266.561  266.166  265.758  263.605  265.119  264.591  265.027  266.599  265.753  266.116  265.989  266.394  265.486  265.156  268.448  265.930  267.449  266.614  266.217  267.081  266.226  266.180  266.871  269.149  267.583  267.405  269.115  267.540  268.205  269.748  268.819  269.717  268.585  270.061  269.638  271.248  270.294  271.951  272.965  270.236  269.353  269.713  271.427  273.084  270.071  270.379  269.860  269.834  268.122  270.306  269.287  268.535  269.990  269.022  267.188  268.468  266.305  267.354  266.172  266.937  266.523  264.955  265.819  266.403  266.290  265.609  265.510  268.725  269.483  267.267  266.624  265.913  266.908  268.109  266.979  266.850  268.435  266.310  267.309  267.056  268.095  267.649  267.328  267.815  269.489  269.536  269.841  270.014  269.099  272.481  269.775  270.745  277.879  271.718  270.798  271.931  271.534  272.205  271.278  273.561  272.540  271.541  270.839  271.321  269.691  270.506  269.671  269.741  268.827  267.530  267.722  266.815  269.053  267.383  266.279  267.310  268.354  268.604  267.006  268.729  267.807  266.291  268.636  267.450  267.489  266.989  266.052  268.351  266.935  272.981  268.710  266.909  268.946  267.513  269.112  269.944  271.033  268.497  269.718  270.412  272.465  271.974  272.280  270.695  272.718  272.464  272.575  271.330  271.942  273.471  270.492  269.601  272.298  270.868  269.600  270.743  268.715  268.751  269.253  268.186  269.550  267.516  269.060  268.212  267.714  267.802  266.935  267.750  267.822  267.361  267.863  267.725  267.404  269.654  268.656  268.214  269.435  268.741  268.233  269.839  268.320  268.025  269.556  270.380  268.356  268.796  268.098  269.437  270.061  268.617  268.780  267.675  268.901  270.436  269.319  269.375  270.150  271.751  272.374  271.658  270.785  270.625  271.909  271.973  270.410  271.044  271.652  271.433  270.321  270.453  270.071 
DATE 2017:067:01:48:43 obsn 589 az 316 el 60 freq_MHz  1422.8800 Tsys 231.636 Tant 36.451 vlsr   26.94 glat  0.166 glon 150.117 source G150.0 
Fstart 1421.877 fstop 1423.883 spacing 0.009375 bw    2.400 fbw    2.000 MHz nfreq 256 nsam 5242880 npoint 214 integ     8 sigma    0.865 bsw 0
Spectrum      7 integration periods
 267.902  267.837  268.054  267.097  266.113  265.879  267.783  266.923  267.448  265.948  266.271  267.806  265.772  265.439  265.653  266.277  267.001  268.684  265.926  266.410  265.772  266.442  268.217  266.986  266.830  267.214  266.796  265.654  267.758  266.609  266.245  265.308  267.689  266.439  266.569  267.136  266.500  264.519  266.381  265.694  266.321  269.251  269.171  270.650  268.600  269.445  268.659  269.964  269.455  269.705  270.959  270.583  270.889  269.901  269.824  268.374  269.828  269.784  271.335  268.705  268.459  268.804  268.595  268.439  269.908  268.904  268.202  266.376  268.205  268.540  268.216  267.512  265.422  264.748  267.304  266.722  265.769  266.089  268.810  266.981  266.655  265.422  265.343  266.374  264.853  265.589  266.703  266.774  267.970  267.346  267.663  267.554  267.842  267.420  268.190  273.314  269.132  269.469  270.610  271.010  272.546  273.391  271.561  274.267  274.700  272.754  272.660  272.147  273.307  274.784  272.025  270.634  271.654  270.170  271.655  271.718  271.715  270.835  270.057  268.050  268.049  269.561  268.387  269.424  268.167  269.294  269.262  269.305  268.380  269.933  267.562  267.767  271.822  267.268  267.960  267.158  268.557  269.043  267.587  268.364  268.055  266.093  269.052  268.432  268.329  267.501  269.928  271.612  268.184  269.632  269.386  272.173  269.692  270.576  271.033  270.350  270.971  269.962  270.621  270.718  270.922  270.557  269.555  271.882  270.292  271.180  268.863  268.480  270.397  270.886  270.082  267.701  269.782  270.831  268.824  269.439  268.523  269.577  268.261  269.889  269.597  272.363  268.520  269.216  267.520  270.484  268.144  269.186  268.914  268.155  267.672  268.070  268.718  266.165  266.676  267.366  266.980  266.515  267.779  269.626  266.737  269.486  269.350  268.952  269.177  269.871  270.241  269.601  269.958  270.147  270.334  271.435  270.219  270.263 
DATE 2017:067:01:49:04 obsn 590 az 314 el 63 freq_MHz  1422.8800 Tsys 231.636 Tant 35.358 vlsr   28.33 glat  0.171 glon 152.617 source G152.5 
Fstart 1421.877 fstop 1423.883 spacing 0.009375 bw    2.400 fbw    2.000 MHz nfreq 256 nsam 5242880 npoint 214 integ     9 sigma    0.809 bsw 0
Spectrum      8 integration periods
 260.852  263.354  266.399  266.825  264.416  264.982  264.387  265.158  265.030  265.011  263.876  263.925  265.208  263.712  266.576  265.128  264.669  268.379  265.604  267.558  265.557  266.590  266.095  265.708  265.338  266.184  266.408  266.682  266.252  266.406  265.657  264.003  265.368  265.342  264.993  265.379  264.379  263.919  263.492  264.453  266.030  266.318  264.432  265.098  264.225  265.041  265.040  264.515  264.432  263.704  264.446  263.462  265.534  264.986  265.699  266.510  263.832  265.303  268.458  265.591  264.273  265.426  268.111  265.759  265.796  265.940  265.855  266.409  266.473  265.620  265.128  266.916  265.444  265.008  265.521  265.751  265.558  266.070  265.800  266.342  266.715  266.119  265.002  264.550  265.827  266.300  264.018  267.059  267.113  265.849  264.378  265.412  265.283  266.585  264.637  268.043  264.492  265.009  266.594  265.037  265.703  264.316  267.301  266.275  267.084  265.045  267.531  268.330  267.389  268.366  267.166  268.012  268.620  267.839  267.204  266.507  265.551  267.215  267.689  266.157  265.073  267.741  266.465  264.443  266.120  266.497  266.694  265.139  264.836  267.078  266.888  266.177  268.843  266.574  266.973  266.410  266.707  265.224  265.952  265.182  266.100  266.566  266.399  267.920  266.680  265.664  266.909  266.428  265.417  265.774  267.727  265.334  264.424  264.890  266.162  266.894  265.929  266.172  267.216  265.507  266.479  266.864  265.617  265.656  266.377  266.578  267.056  266.143  266.901  266.265  267.937  268.501  266.999  267.062  266.622  266.334  265.897  267.771  267.315  269.069  267.516  267.507  266.705  267.442  267.106  267.734  267.162  267.571  267.839  267.970  266.422  266.402  268.029  268.218  267.388  265.240  266.012  265.443  264.994  265.552  266.770  265.274  264.329  266.691  265.348  264.597  265.297  265.073  265.260  265.901  264.837  265.829  266.694  264.872 
DATE 2017:067:01:49:25 obsn 591 az 312 el 65 freq_MHz  1422.8800 Tsys 231.636 Tant 33.153 vlsr   29.67 glat  0.176 glon 155.117 source G155.0 
Fstart 1421.877 fstop 1423.883 spacing 0.009375 bw    2.400 fbw    2.000 MHz nfreq 256 nsam 5242880 npoint 214 integ     9 sigma    0.809 bsw 0
Spectrum      8 integration periods
 262.358  261.672  263.557  261.248  263.464  263.934  263.413  265.122  262.511  263.829  262.801  263.357  263.494  262.779  265.077  263.827  263.589  264.767  263.171  263.026  264.779  265.994  265.184  264.599  265.513  265.915  265.894  263.977  266.546  264.642  265.303  266.039  264.393  265.509  263.133  264.338  266.146  264.055  264.071  263.396  265.697  264.046  263.904  263.955  263.909  265.142  265.231  264.731  264.486  265.191  263.462  264.116  264.211  264.271  264.759  264.839  265.706  263.953  263.812  263.717  265.420  265.510  264.937  266.004  264.235  266.256  265.662  264.061  265.638  265.270  264.683  263.541  263.411  263.663  263.877  263.950  264.442  262.523  264.470  265.980  263.434  264.286  264.571  264.304  264.740  264.509  264.331  265.302  264.255  264.205  264.410  262.496  263.575  265.260  264.002  269.040  267.171  263.900  264.001  263.017  265.976  262.806  263.942  263.310  263.988  264.847  264.670  264.734  266.056  265.781  266.338  265.397  264.449  265.458  264.920  266.948  265.332  265.191  265.869  265.301  266.007  265.148  263.673  263.327  265.177  265.398  263.682  263.611  263.972  264.605  266.205  263.220  262.884  262.510  265.336  263.943  265.497  263.390  266.148  265.480  264.514  266.017  264.766  264.650  265.078  264.248  265.388  265.309  264.194  263.658  267.351  263.466  264.147  263.673  264.593  263.061  264.523  263.718  263.994  263.760  264.367  263.632  263.519  265.440  265.138  263.009  263.151  264.219  263.293  263.764  263.624  264.777  264.155  264.600  263.787  262.676  263.678  264.169  263.735  264.763  264.102  265.508  265.373  264.861  263.800  265.656  264.334  266.137  265.650  264.567  265.430  265.296  263.730  264.054  265.639  264.062  265.005  264.249  264.866  264.405  265.324  262.694  266.494  263.077  264.334  264.819  264.465  263.964  263.796  263.441  262.831  263.167  264.910  264.559 
DATE 2017:067:01:50:03 obsn 592 az 306 el 69 freq_MHz  1422.8800 Tsys 231.636 Tant 38.479 vlsr   32.17 glat  0.185 glon 160.117 source G160.0 
Fstart 1421.877 fstop 1423.883 spacing 0.009375 bw    2.400 fbw    2.000 MHz nfreq 256 nsam 5242880 npoint 214 integ     2 sigma    1.619 bsw 0
Spectrum      2 integration periods
 270.106  271.579  269.466  273.534  269.952  267.293  268.904  262.181  271.498  267.463  265.330  273.243  268.130  269.092  270.889  269.374  265.982  270.109  267.373  272.348  269.240  271.726  269.867  269.208  271.723  267.912  267.356  270.912  271.473  269.317  267.442  268.581  272.102  272.003  268.215  264.702  266.658  269.908  269.782  266.540  268.471  269.358  270.736  267.809  271.182  270.300  270.146  268.425  271.111  271.311  269.659  271.467  272.820  270.729  269.656  269.277  269.107  271.299  268.042  270.039  270.233  267.849  274.596  269.603  270.947  269.652  265.944  268.999  264.934  270.206  269.449  268.509  265.076  270.655  268.235  266.747  266.819  268.313  269.255  269.193  270.706  270.486  271.877  269.141  269.385  267.961  270.172  268.468  268.998  269.782  268.589  272.948  273.371  270.761  273.960  270.248  271.023  268.160  271.978  272.813  272.533  270.326  271.692  271.618  272.641  268.793  270.457  274.399  272.008  276.987  268.654  273.622  271.341  268.367  266.663  267.543  270.463  271.938  274.273  272.679  272.609  271.013  268.929  263.495  272.829  270.516  268.128  271.935  268.637  271.556  271.054  271.487  271.858  270.185  270.871  269.824  268.461  268.369  270.001  273.007  269.702  274.351  275.033  268.459  273.693  271.550  269.150  272.969  272.567  272.134  272.879  271.035  270.742  272.062  270.255  271.925  273.178  271.296  270.018  272.539  272.271  269.447  267.854  269.854  273.838  269.125  271.700  270.847  269.919  271.460  273.038  273.402  270.501  270.946  272.098  271.569  268.696  268.096  269.400  275.182  271.365  275.317  271.699  271.150  270.210  267.718  269.513  268.685  269.793  270.663  270.390  269.234  272.022  275.017  271.253  270.900  268.401  270.765  270.771  270.039  269.669  272.017  271.412  270.918  271.078  271.897  269.143  272.940  271.014  269.713  270.844  270.171  269.420  269.299 
DATE 2017:067:01:50:24 obsn 593 az 302 el 71 freq_MHz  1422.8800 Tsys 231.636 Tant 39.419 vlsr   33.33 glat  0.188 glon 162.617 source G162.5 
Fstart 1421.877 fstop 1423.883 spacing 0.009375 bw    2.400 fbw    2.000 MHz nfreq 256 nsam 5242880 npoint 214 integ     3 sigma    1.322 bsw 0
Spectrum      3 integration periods
 266.620  270.039  265.581  268.127  269.034  268.019  267.307  266.108  266.413  265.707  267.108  267.949  267.344  264.603  267.467  267.732  266.532  267.843  269.618  267.957  269.669  268.274  267.606  268.723  268.021  269.313  266.330  268.652  270.213  269.274  269.342  268.489  268.002  269.180  267.050  268.467  269.325  270.023  267.986  267.681  268.464  268.978  267.927  268.294  269.623  269.755  267.675  265.868  268.332  266.588  268.833  266.505  268.268  266.506  269.075  266.234  268.467  267.340  268.830  265.212  266.211  266.288  268.667  268.484  266.780  268.955  268.605  268.879  268.496  266.870  265.085  266.807  268.084  269.090  263.589  267.258  266.400  268.772  268.831  266.637  267.797  266.100  268.646  269.621  266.486  267.646  269.631  270.594  269.907  269.466  270.167  271.491  270.069  268.611  268.154  272.419  270.192  270.403  268.788  269.044  269.666  270.422  269.431  266.868  273.036  271.316  270.675  269.090  270.030  273.323  270.618  270.649  270.946  270.278  268.504  270.891  272.960  271.725  273.917  269.960  272.324  270.832  268.283  273.150  268.835  270.110  270.894  269.789  272.293  269.229  269.053  271.912  271.161  271.069  269.669  271.331  269.444  268.637  270.746  270.048  272.732  269.829  272.780  271.043  271.876  270.333  270.417  274.549  272.636  274.067  272.218  273.553  270.528  271.007  269.575  271.030  268.211  270.605  269.970  271.070  268.453  270.634  269.581  267.988  272.593  272.501  271.451  272.032  267.955  271.770  270.442  271.478  271.610  272.311  273.902  269.388  271.949  268.465  272.780  270.981  269.214  272.293  271.674  272.750  274.387  271.735  270.457  274.949  273.312  270.247  271.632  268.741  270.495  272.095  270.125  270.553  269.922  273.451  269.704  271.348  270.878  270.303  274.655  271.764  270.367  273.278  271.243  273.506  272.197  271.073  268.316  269.666  269.866  269.893 
DATE 2017:067:01:50:45 obsn 594 az 298 el 73 freq_MHz  1422.8800 Tsys 231.636 Tant 38.151 vlsr   34.43 glat  0.192 glon 165.117 source G165.0 
Fstart 1421.877 fstop 1423.883 spacing 0.009375 bw    2.400 fbw    2.000 MHz nfreq 256 nsam 5242880 npoint 214 integ     4 sigma    1.145 bsw 0
Spectrum      4 integration periods
 267.463  268.358  270.325  268.993  270.770  269.423  270.645  268.968  269.458  268.032  268.995  267.239  265.892  268.484  269.929  268.832  267.279  266.496  268.037  271.142  267.705  268.418  270.627  269.447  270.930  269.907  267.063  270.847  269.747  268.955  269.551  271.173  270.664  269.197  269.040  269.175  269.202  269.151  268.754  268.745  269.098  267.844  267.383  268.157  266.724  269.310  267.200  269.738  268.339  269.798  270.143  267.711  268.561  269.146  268.082  270.431  270.170  269.762  269.953  269.590  267.177  269.413  270.678  269.815  269.572  269.438  269.347  270.519  266.308  267.700  270.192  268.884  269.222  268.044  268.954  267.919  268.231  268.939  270.371  271.376  267.871  267.201  267.564  269.258  266.482  269.438  268.926  269.788  268.135  268.917  267.903  268.320  268.046  268.286  267.102  271.205  268.114  267.626  267.698  267.546  267.552  268.437  269.145  267.492  270.914  266.708  267.405  267.158  270.290  267.640  268.635  267.712  270.183  270.601  270.148  269.666  269.639  270.482  270.797  271.571  269.404  269.161  269.812  268.193  269.727  269.044  267.362  268.340  269.489  268.758  269.952  266.036  270.156  270.347  268.808  270.839  267.408  268.774  269.342  268.611  268.032  267.765  268.508  268.703  265.260  269.191  269.526  268.260  268.204  268.126  267.278  269.741  268.406  269.281  269.713  269.416  269.316  266.181  266.676  267.906  268.577  269.727  267.864  268.016  269.048  267.833  267.553  269.475  266.379  268.456  269.206  269.936  268.215  269.137  268.582  267.529  269.949  270.046  269.262  268.797  269.081  268.279  269.558  269.447  268.636  268.576  270.125  268.390  269.894  267.891  270.335  268.463  269.853  268.629  267.113  268.069  267.721  267.857  268.437  269.632  266.352  268.688  268.386  265.826  268.014  267.713  265.902  266.171  268.348  270.360  267.803  269.366  268.246  269.462 
DATE 2017:067:01:51:06 obsn 595 az 292 el 75 freq_MHz  1422.8800 Tsys 231.636 Tant 40.278 vlsr   35.46 glat  0.195 glon 167.617 source G167.5 
Fstart 1421.877 fstop 1423.883 spacing 0.009375 bw    2.400 fbw    2.000 MHz nfreq 256 nsam 5242880 npoint 214 integ     4 sigma    1.145 bsw 0
Spectrum      4 integration periods
 266.102  266.924  267.035  269.401  269.072  268.248  266.527  269.197  266.116  267.800  270.446  268.811  267.788  267.970  269.498  270.523  269.535  269.660  270.581  269.772  268.845  271.688  270.106  270.677  269.526  269.454  271.401  272.769  273.362  271.924  271.049  272.897  272.452  268.914  271.439  270.780  271.339  270.756  269.545  272.341  273.153  271.730  269.667  272.684  270.145  271.636  274.055  271.731  269.144  269.846  270.593  270.165  269.290  271.634  271.222  268.744  271.117  272.249  273.163  268.895  271.043  269.454  270.363  271.085  270.194  273.221  270.535  271.796  272.800  271.975  269.748  273.509  272.506  269.408  268.758  271.489  270.873  271.707  269.145  269.647  269.277  269.569  272.156  271.003  272.749  272.994  272.877  271.413  272.421  272.085  272.134  272.853  272.982  272.245  272.583  273.952  272.056  273.033  272.477  271.087  272.676  270.754  270.407  273.058  273.972  272.670  273.947  272.846  269.961  270.430  271.578  271.767  271.233  271.844  269.710  271.861  269.811  269.103  271.864  271.212  271.834  269.827  270.806  270.309  270.790  269.794  271.247  271.509  269.882  271.485  270.355  270.810  271.632  269.094  271.805  269.389  269.654  269.667  270.160  272.614  270.881  271.454  272.944  272.027  272.912  272.825  271.755  272.490  272.010  270.270  272.340  271.337  271.410  272.291  270.078  271.723  272.951  272.359  267.504  269.955  271.215  267.609  271.743  269.770  268.727  268.552  271.087  268.868  267.930  268.802  271.227  271.367  269.424  271.637  272.088  269.916  268.014  271.585  271.435  272.899  270.796  273.216  271.620  271.234  271.649  270.381  271.506  269.402  270.420  270.280  270.886  270.422  272.033  272.190  268.994  271.725  269.239  269.301  269.366  270.627  270.366  271.575  271.015  268.362  271.486  271.246  272.042  268.698  273.128  270.306  269.232  272.720  270.394  272.031 
DATE 2017:067:01:51:30 obsn 596 az 284 el 77 freq_MHz  1422.8800 Tsys 231.636 Tant 41.890 vlsr   36.42 glat  0.198 glon 170.117 source G170.0 
Fstart 1421.877 fstop 1423.883 spacing 0.009375 bw    2.400 fbw    2.000 MHz nfreq 256 nsam 5242880 npoint 214 integ     5 sigma    1.024 bsw 0
Spectrum      5 integration periods
 268.615  268.977  271.545  268.548  270.978  269.819  269.946  271.057  270.241  270.285  270.680  269.426  269.981  269.240  269.842  270.308  270.616  271.969  269.979  269.985  270.942  271.542  270.788  270.023  270.213  270.940  271.926  270.422  270.230  271.511  270.911  270.376  270.301  270.705  268.633  269.379  271.617  271.742  269.500  269.269  271.322  269.411  272.603  270.323  271.637  271.815  271.207  272.118  272.254  269.860  270.631  271.898  270.783  273.420  271.718  273.258  271.139  271.714  271.813  271.313  270.811  272.432  269.619  272.523  273.375  274.290  271.963  271.835  271.197  272.099  273.566  273.264  273.467  271.354  271.408  272.663  270.503  272.223  271.854  270.581  269.766  271.232  271.458  270.163  272.540  270.481  271.105  270.878  274.252  271.750  274.451  271.413  272.639  272.152  272.672  274.214  271.128  272.677  273.697  273.487  274.057  271.592  274.710  272.543  274.091  273.339  272.727  272.307  273.045  274.327  272.756  274.709  273.893  273.285  272.342  272.498  273.734  273.526  273.661  272.334  273.700  272.242  271.664  271.469  273.715  272.585  271.296  272.428  270.036  272.110  270.680  270.457  272.013  274.411  273.533  273.331  271.883  271.243  273.437  272.646  271.823  271.175  273.050  274.102  271.764  275.342  274.092  274.763  272.871  273.568  275.855  275.221  272.665  272.407  271.475  271.821  273.997  274.541  271.221  272.556  272.195  271.771  270.319  271.521  273.235  271.015  271.076  270.949  273.125  273.455  272.849  273.833  273.306  272.360  274.310  274.669  272.564  273.647  273.917  271.954  272.382  272.579  275.155  270.829  274.402  273.075  272.820  273.085  272.870  273.794  272.868  273.831  272.476  271.464  272.599  274.017  272.556  273.194  272.795  270.598  270.899  272.472  271.902  275.005  275.884  272.392  271.575  273.654  273.503  272.012  272.873  272.820  272.030  272.091 
DATE 2017:067:01:51:54 obsn 597 az 275 el 78 freq_MHz  1422.8800 Tsys 231.636 Tant 43.394 vlsr   37.32 glat  0.200 glon 172.617 source G172.5 
Fstart 1421.877 fstop 1423.883 spacing 0.009375 bw    2.400 fbw    2.000 MHz nfreq 256 nsam 5242880 npoint 214 integ     5 sigma    1.024 bsw 0
Spectrum      5 integration periods
 271.206  273.129  273.169  273.825  272.965  274.464  272.318  270.707  271.496  272.867  271.895  271.511  273.389  270.187  271.841  272.279  273.144  271.889  271.273  273.291  269.743  272.052  272.329  270.930  271.894  273.408  270.408  271.283  270.948  272.013  272.247  269.992  271.767  269.978  272.205  273.731  273.683  273.510  271.365  273.813  271.254  272.062  273.516  270.976  269.985  273.647  272.674  272.196  272.970  273.189  273.971  272.336  272.673  273.644  274.637  275.082  274.810  273.169  275.989  271.935  273.728  274.273  275.438  276.538  273.737  274.587  273.191  274.273  272.019  274.524  273.695  273.543  271.483  271.764  271.159  272.422  271.489  271.396  271.073  273.997  270.231  272.694  272.590  272.435  270.953  270.672  271.326  270.666  272.329  275.094  272.442  273.016  273.474  273.725  273.436  276.137  274.486  272.259  274.710  273.848  275.460  273.992  275.284  274.613  275.252  275.617  274.139  274.420  276.424  275.185  274.805  275.085  275.176  273.567  272.828  275.878  275.846  276.146  274.952  275.522  275.781  275.467  273.269  273.006  273.393  277.256  274.274  273.161  272.461  274.553  272.955  272.513  272.761  273.934  271.270  273.943  271.825  274.029  271.583  272.466  273.746  273.182  274.773  275.522  271.494  273.366  274.065  273.646  274.448  275.505  273.630  274.916  274.404  272.862  275.833  272.406  274.129  274.357  277.027  276.387  275.715  275.955  277.976  275.666  276.601  274.761  275.810  274.215  276.419  274.962  275.453  274.992  276.035  275.938  276.162  274.563  275.145  275.305  278.425  275.068  275.862  273.336  275.135  276.832  274.184  273.876  274.568  275.436  272.825  275.698  273.321  274.702  276.344  275.466  272.804  273.349  274.860  274.040  274.311  273.737  274.022  275.163  275.493  273.893  275.314  272.202  273.744  273.666  275.010  274.637  275.390  276.615  276.509  276.371 
DATE 2017:067:01:52:21 obsn 598 az 263 el 79 freq_MHz  1422.8800 Tsys 231.636 Tant 42.201 vlsr   38.14 glat  0.202 glon 175.117 source G175.0 
Fstart 1421.877 fstop 1423.883 spacing 0.009375 bw    2.400 fbw    2.000 MHz nfreq 256 nsam 5242880 npoint 214 integ     4 sigma    1.145 bsw 0
Spectrum      4 integration periods
 269.050  272.464  272.129  273.381  270.251  270.486  272.823  271.974  272.967  271.857  269.450  271.070  267.827  269.275  270.069  272.104  270.673  272.463  272.134  272.528  270.192  270.825  271.612  273.656  273.112  273.535  272.850  273.868  273.375  272.783  271.538  269.506  271.026  270.824  272.826  270.910  271.745  271.386  272.213  270.192  271.841  270.685  271.503  273.442  270.888  271.534  269.972  271.248  270.596  275.057  271.776  272.479  272.137  271.946  274.601  272.880  272.485  272.531  274.494  273.621  274.228  275.164  272.505  273.824  275.585  274.833  272.563  274.801  275.722  273.959  271.696  273.069  274.399  270.926  273.215  271.558  272.151  271.378  272.996  273.768  273.061  271.577  271.137  272.874  272.798  272.481  270.324  272.643  272.396  270.590  272.796  272.820  273.222  274.895  271.948  274.181  273.022  273.038  272.476  275.274  272.005  272.681  273.776  274.260  274.354  273.892  274.637  274.138  272.700  275.194  274.031  276.006  275.083  274.030  275.868  275.920  275.310  273.839  275.519  276.019  276.620  274.567  274.889  272.167  274.801  273.418  271.490  272.537  272.102  272.661  273.429  273.752  273.953  271.060  274.626  273.706  270.024  274.687  272.118  273.970  272.828  275.015  273.516  275.858  274.784  274.151  274.686  274.718  275.870  278.786  276.118  275.188  273.965  275.975  275.340  276.770  275.950  278.108  274.682  274.657  275.418  274.144  273.334  273.106  274.526  275.671  274.262  275.802  274.934  272.950  275.559  275.567  274.850  274.879  275.549  276.123  273.219  275.848  275.292  278.234  279.082  273.562  275.131  274.544  274.940  275.930  273.729  276.118  276.552  273.780  274.124  274.866  278.013  275.236  274.511  272.742  273.684  272.996  275.220  276.213  272.533  275.018  277.366  275.031  275.675  275.473  274.317  275.293  275.584  276.361  275.202  277.540  275.431  274.325 
DATE 2017:067:01:52:56 obsn 599 az 250 el 79 freq_MHz  1422.8800 Tsys 231.636 Tant 38.582 vlsr   38.89 glat  0.203 glon 177.617 source G177.5 
Fstart 1421.877 fstop 1423.883 spacing 0.009375 bw    2.400 fbw    2.000 MHz nfreq 256 nsam 5242880 npoint 214 integ     4 sigma    1.145 bsw 0
Spectrum      4 integration periods
 268.359  271.560  270.991  269.202  269.440  270.755  271.711  271.075  270.849  271.780  268.361  269.086  269.668  273.126  270.742  269.131  269.141  271.262  270.417  272.822  272.186  270.191  271.984  269.478  270.051  272.141  269.536  269.009  270.954  271.383  268.931  271.110  271.837  271.041  273.670  270.525  271.220  271.039  269.525  271.862  270.653  268.585  270.648  272.426  268.241  269.698  271.338  274.076  273.742  271.474  270.134  273.576  270.634  271.554  270.898  271.376  272.739  273.611  270.591  271.772  271.850  271.337  271.082  270.618  272.144  272.381  273.083  271.301  271.120  271.724  272.062  269.227  269.167  273.358  269.261  272.727  271.671  273.196  271.488  270.330  271.106  270.480  271.954  269.879  270.826  273.291  269.534  269.595  271.946  271.582  271.478  270.862  269.522  271.360  272.247  272.459  270.576  269.490  270.637  273.775  270.685  273.243  272.971  271.916  272.485  271.411  272.401  269.937  272.667  271.019  273.861  272.127  272.102  273.072  275.041  270.648  270.696  273.732  272.901  270.951  271.840  272.066  272.969  267.534  271.380  272.854  269.299  270.675  269.619  272.995  272.467  272.234  275.238  272.660  271.636  269.273  272.503  271.666  267.959  270.991  270.697  270.774  272.759  271.231  273.187  270.930  271.977  271.717  269.986  269.157  270.656  271.555  271.793  273.701  273.464  272.984  269.949  274.073  270.834  270.633  271.853  272.179  271.351  272.545  273.805  271.799  273.511  273.153  273.930  272.396  271.547  272.462  273.157  270.439  272.114  271.583  275.186  271.470  271.469  274.454  271.111  273.467  272.208  273.264  271.476  271.731  272.483  269.905  272.131  272.213  270.291  274.642  272.782  270.803  273.239  274.505  271.024  271.262  273.202  273.409  270.985  272.006  271.928  268.840  270.295  272.565  272.714  270.885  272.282  272.695  273.825  273.471  273.706  272.686 
DATE 2017:067:01:53:23 obsn 600 az 237 el 79 freq_MHz  1422.8800 Tsys 231.636 Tant 41.022 vlsr   39.57 glat  0.205 glon 180.117 source G180.0 
Fstart 1421.877 fstop 1423.883 spacing 0.009375 bw    2.400 fbw    2.000 MHz nfreq 256 nsam 5242880 npoint 214 integ     4 sigma    1.145 bsw 0
Spectrum      4 integration periods
 266.070  266.565  269.348  270.212  271.285  271.969  269.034  267.618  269.590  269.323  269.605  269.773  270.639  268.759  270.973  269.687  269.737  267.804  269.641  267.653  269.145  271.393  270.786  270.665  268.705  269.629  269.597  269.841  270.289  270.578  271.953  270.670  274.098  272.037  270.334  271.966  269.313  269.028  269.678  269.842  271.106  271.743  272.045  270.172  267.625  271.547  269.794  270.468  272.156  271.646  267.611  269.508  271.454  270.702  271.017  270.069  269.765  272.433  270.780  272.612  270.566  270.947  271.525  271.794  270.418  272.391  272.357  270.281  272.771  271.238  272.381  272.277  271.258  270.917  273.421  271.947  266.124  266.605  272.411  271.016  272.115  270.462  271.836  270.377  269.398  270.744  271.655  269.295  271.684  268.308  270.853  268.885  270.970  271.545  271.302  273.602  271.769  269.875  271.069  271.638  271.811  271.764  273.057  271.321  273.597  269.794  273.123  272.098  274.455  272.916  273.033  273.473  272.793  273.303  271.934  272.105  271.956  272.013  271.396  272.948  273.439  272.358  270.424  275.549  271.763  270.349  272.449  272.145  274.768  271.923  272.248  270.953  273.496  271.046  271.305  274.323  271.641  273.156  272.467  272.809  273.990  273.902  271.651  272.051  269.820  271.800  272.825  274.393  271.945  272.288  272.644  274.174  273.081  274.214  271.262  274.677  270.656  273.173  273.634  270.000  271.976  271.090  273.281  274.191  274.782  271.847  271.086  273.559  273.829  274.391  274.663  274.902  273.393  273.622  274.422  275.057  273.886  274.205  273.503  275.297  271.663  276.866  275.583  274.349  272.853  273.295  273.190  274.166  275.626  275.363  275.465  273.837  274.474  276.469  270.864  273.505  273.330  273.210  273.720  273.210  273.133  273.675  273.507  274.992  272.642  274.869  272.804  271.409  274.118  273.169  273.095  275.513  273.851  275.360 
DATE 2017:067:01:53:49 obsn 601 az 224 el 79 freq_MHz  1422.8800 Tsys 231.636 Tant 38.627 vlsr   40.17 glat  0.205 glon 182.617 source G182.5 
Fstart 1421.877 fstop 1423.883 spacing 0.009375 bw    2.400 fbw    2.000 MHz nfreq 256 nsam 5242880 npoint 214 integ     3 sigma    1.322 bsw 0
Spectrum      3 integration periods
 265.685  265.228  269.069  268.997  270.377  267.822  270.676  268.226  269.471  268.840  270.025  271.954  267.910  270.947  269.331  271.536  267.887  272.133  270.183  270.238  267.151  268.866  269.682  269.822  271.667  267.920  272.734  270.700  269.654  275.336  271.776  267.656  268.992  267.048  270.314  269.161  267.395  268.935  269.807  269.655  270.736  271.789  269.649  270.332  269.496  271.477  268.982  268.363  269.650  271.868  270.345  268.697  271.614  269.072  272.326  272.210  272.036  270.274  271.500  270.970  267.722  271.422  271.102  269.100  271.298  270.611  271.260  271.670  269.035  270.092  270.042  272.399  269.118  269.545  270.930  268.284  269.483  270.172  270.412  269.504  269.964  269.322  270.466  270.891  271.223  270.920  270.353  271.942  268.880  269.445  271.779  270.981  271.656  270.098  271.369  268.483  271.070  272.267  271.879  267.984  269.919  272.859  268.204  269.963  270.653  270.923  273.598  272.407  270.197  271.955  270.518  274.313  270.874  270.466  271.343  269.858  273.419  273.335  271.805  269.978  269.752  270.691  274.672  268.665  273.705  269.895  271.250  268.716  270.905  271.453  272.804  271.387  274.659  271.045  270.231  271.590  271.428  273.446  270.517  269.627  271.904  271.536  271.633  270.019  270.025  271.742  270.871  271.215  276.555  273.044  270.703  271.069  272.359  269.756  270.667  273.405  271.562  273.819  271.481  272.138  271.193  270.704  272.023  273.559  272.452  272.925  271.485  271.410  272.140  270.336  272.082  270.129  269.913  273.870  272.449  271.377  271.151  275.071  273.227  274.071  274.592  271.794  271.982  274.012  270.736  273.783  271.100  267.013  273.412  270.421  273.142  274.115  270.742  270.394  269.863  274.476  274.543  270.767  271.335  270.611  272.222  270.293  271.536  270.159  271.875  272.002  271.697  272.098  271.308  269.831  271.562  274.039  272.157  271.475 
DATE 2017:067:01:54:24 obsn 602 az 214 el 78 freq_MHz  1422.8800 Tsys 231.636 Tant 38.140 vlsr   40.69 glat  0.206 glon 185.117 source G185.0 
Fstart 1421.877 fstop 1423.883 spacing 0.009375 bw    2.400 fbw    2.000 MHz nfreq 256 nsam 5242880 npoint 214 integ     9 sigma    0.809 bsw 0
Spectrum      8 integration periods
 267.393  266.977  270.145  272.105  270.953  272.159  271.274  268.883  268.801  269.557  268.851  270.360  268.972  268.943  270.141  271.177  271.682  268.565  271.280  270.423  269.247  269.986  271.806  269.858  270.329  271.193  269.097  269.512  272.154  270.572  272.290  270.233  271.570  269.499  268.834  270.476  269.229  268.500  269.343  271.004  271.407  269.942  269.572  270.072  269.880  269.783  270.051  270.048  271.374  269.142  269.165  268.809  269.896  269.482  268.583  268.419  268.473  268.626  270.936  269.269  269.662  270.547  270.400  269.428  269.054  269.448  270.789  268.384  268.505  270.401  270.049  269.428  269.655  269.183  269.658  268.471  268.386  268.537  267.593  269.361  268.908  270.067  269.454  268.739  268.083  269.731  269.562  269.606  269.831  270.084  269.486  267.887  269.380  268.627  267.838  268.062  269.388  270.126  269.245  267.692  268.942  267.451  268.822  268.910  269.037  268.001  269.426  268.795  268.636  269.198  269.096  268.378  269.236  269.589  270.429  269.456  269.275  268.826  267.999  270.529  268.635  267.704  270.470  268.206  269.246  268.953  269.100  269.515  268.464  267.660  267.410  268.816  270.039  269.748  268.805  268.302  267.061  267.977  266.758  267.849  267.648  268.499  266.808  267.500  266.847  268.359  266.588  268.771  267.108  267.982  267.234  267.892  265.806  266.453  269.008  270.289  269.341  267.721  267.762  267.998  267.158  268.020  268.071  266.679  269.880  268.163  268.610  267.382  269.749  267.626  267.736  268.115  268.571  268.858  269.877  269.220  267.631  266.896  269.169  269.756  267.531  268.943  268.185  269.242  270.345  269.388  268.348  267.597  269.322  269.589  268.931  268.960  267.212  267.859  268.970  269.587  268.605  266.241  267.783  268.481  267.319  267.853  269.626  269.104  268.260  267.833  267.761  266.555  269.069  270.291  269.231  268.393  269.495  268.742 
DATE 2017:067:01:54:48 obsn 603 az 205 el 76 freq_MHz  1422.8800 Tsys 231.636 Tant 38.152 vlsr   41.14 glat  0.206 glon 187.618 source G187.5 
Fstart 1421.877 fstop 1423.883 spacing 0.009375 bw    2.400 fbw    2.000 MHz nfreq 256 nsam 5242880 npoint 214 integ     8 sigma    0.865 bsw 0
Spectrum      7 integration periods
 269.086  270.190  269.681  272.743  272.561  271.605  273.021  271.331  270.019  271.037  271.581  269.658  271.804  269.591  269.811  271.303  270.336  271.309  269.418  270.544  271.434  269.974  270.060  271.769  270.649  269.448  274.790  273.172  271.426  271.748  273.471  270.967  272.049  270.584  270.356  271.192  271.236  269.959  267.970  270.702  271.192  270.432  269.579  269.418  269.896  271.124  270.708  272.361  271.067  270.144  272.649  270.828  270.726  271.625  269.212  270.712  270.280  270.692  270.249  270.041  269.122  270.232  271.935  271.290  269.577  270.306  269.782  269.810  270.946  268.592  271.760  270.644  270.261  269.825  270.349  269.480  269.087  271.126  271.171  271.686  269.788  268.314  269.869  270.404  269.317  266.874  267.955  268.470  271.001  269.525  269.333  269.185  269.974  269.697  269.458  272.717  269.366  270.763  270.835  268.108  269.418  269.900  271.030  268.698  270.677  270.686  269.946  270.012  270.481  269.065  268.728  268.869  271.785  270.271  269.941  270.654  270.183  270.474  270.169  269.332  268.776  269.873  269.134  268.212  265.801  269.343  267.687  269.136  268.034  269.434  267.485  269.843  270.520  267.389  267.108  268.259  267.855  269.674  267.050  267.471  267.390  267.620  268.498  268.987  268.519  267.688  269.505  266.491  266.563  266.244  269.165  268.445  267.652  268.393  267.838  268.620  268.687  267.658  267.043  268.630  268.993  267.912  268.575  268.636  266.789  267.989  267.376  267.406  266.873  267.745  266.660  268.075  266.955  268.974  267.401  268.359  267.739  266.569  264.853  268.723  268.464  268.463  267.725  267.610  267.476  268.756  269.978  268.472  268.458  268.512  268.552  265.737  266.405  267.355  267.390  267.736  267.123  267.877  267.314  266.679  266.076  266.742  268.453  265.971  267.847  265.989  266.892  266.262  266.401  266.485  268.735  267.884  267.543  269.281 
DATE 2017:067:01:55:12 obsn 604 az 198 el 74 freq_MHz  1422.8800 Tsys 231.636 Tant 41.730 vlsr   41.51 glat  0.205 glon 190.118 source G190.0 
Fstart 1421.877 fstop 1423.883 spacing 0.009375 bw    2.400 fbw    2.000 MHz nfreq 256 nsam 5242880 npoint 214 integ     7 sigma    0.935 bsw 0
Spectrum      6 integration periods
 270.029  272.305  271.278  272.073  273.113  271.153  271.907  271.072  273.636  272.522  272.842  273.445  272.845  274.127  270.888  272.477  270.768  272.314  269.838  272.253  272.869  272.626  271.719  273.980  272.348  273.457  272.083  272.587  274.357  272.860  271.943  273.757  273.584  273.825  271.443  272.406  272.136  271.928  270.748  271.673  273.320  274.138  272.036  273.116  271.265  274.396  270.901  273.012  273.553  273.166  272.278  271.008  273.428  273.323  272.948  272.131  273.283  272.305  274.218  272.624  273.419  272.908  275.965  272.606  271.632  273.684  274.034  270.937  273.406  273.669  273.961  274.536  272.611  269.988  271.200  272.175  271.819  270.029  272.008  273.359  270.703  271.286  270.325  272.253  270.939  272.665  273.608  272.021  272.423  271.418  271.104  270.397  271.582  270.823  272.666  276.463  272.470  271.818  272.376  271.391  272.582  273.894  272.618  272.251  270.452  273.735  274.259  273.389  272.744  274.121  274.133  271.408  273.381  270.133  270.698  272.269  273.055  271.734  271.004  272.740  270.760  271.332  271.643  273.045  270.744  269.118  270.539  270.797  270.446  269.696  270.801  272.704  275.329  271.857  271.482  270.330  269.937  268.243  270.238  271.155  270.497  272.396  270.527  272.776  272.213  273.818  270.627  272.795  271.716  272.011  271.950  271.727  270.598  272.302  270.301  271.956  274.216  272.251  271.784  270.374  270.259  270.849  273.086  271.197  272.851  270.026  271.538  268.946  272.453  270.666  270.534  269.753  271.888  271.675  270.661  270.594  269.108  270.921  272.483  269.986  271.542  271.083  268.709  269.871  269.983  268.134  268.038  268.819  270.449  269.490  269.687  271.233  270.411  268.787  269.392  270.223  268.346  270.435  268.651  266.568  268.379  267.918  269.721  268.895  267.159  270.423  270.107  268.054  271.763  267.719  269.666  269.528  269.645  271.937 
DATE 2017:067:01:55:49 obsn 605 az 188 el 71 freq_MHz  1422.8800 Tsys 231.636 Tant 45.823 vlsr   42.01 glat  0.203 glon 195.118 source G195.0 
Fstart 1421.877 fstop 1423.883 spacing 0.009375 bw    2.400 fbw    2.000 MHz nfreq 256 nsam 5242880 npoint 214 integ     2 sigma    1.619 bsw 0
Spectrum      2 integration periods
 277.154  280.313  283.101  283.086  281.894  276.742  278.638  279.668  280.751  278.531  278.963  279.222  280.338  275.877  277.460  279.299  279.358  275.450  277.411  281.628  279.071  281.221  276.769  279.579  278.089  281.528  280.041  278.181  274.469  277.106  284.281  279.291  279.033  276.712  277.837  277.143  277.790  280.121  278.706  281.100  281.809  281.128  278.599  280.794  279.059  278.852  281.459  277.870  281.772  280.456  280.333  282.242  282.405  279.112  276.870  277.357  279.591  278.738  283.729  276.954  280.647  281.705  280.799  279.211  280.613  277.409  279.428  279.514  273.691  276.558  283.779  280.385  274.720  279.766  278.994  277.152  276.856  279.696  277.422  280.117  274.341  276.804  276.365  276.549  277.451  279.207  277.049  282.693  276.350  277.027  272.946  280.169  276.956  276.425  276.464  280.059  280.187  278.530  276.491  278.682  279.140  276.166  274.310  276.278  274.823  277.528  277.961  277.241  280.942  283.095  276.190  274.265  276.373  279.890  276.360  278.906  279.333  279.466  276.525  278.020  276.056  279.368  277.035  277.593  273.764  275.818  274.995  276.532  276.810  278.140  274.741  271.603  289.129  274.270  276.228  277.089  275.610  277.440  277.042  274.508  273.065  274.590  278.009  275.866  274.721  271.097  277.752  277.317  274.678  278.698  272.248  273.353  274.065  275.175  273.411  277.928  275.437  276.727  277.356  272.907  275.198  274.279  273.863  275.124  276.692  272.089  274.055  274.311  273.891  273.697  271.276  274.266  273.993  275.473  271.155  272.758  275.349  274.324  275.116  270.629  271.115  273.598  274.546  272.165  272.017  273.844  272.626  275.157  272.338  273.832  275.280  274.253  274.430  274.752  272.161  272.874  273.000  271.912  270.901  273.795  275.657  271.836  271.966  272.209  274.845  271.877  270.456  270.444  272.658  272.382  271.405  276.145  271.870  272.607 
DATE 2017:067:01:56:11 obsn 606 az 184 el 68 freq_MHz  1422.8800 Tsys 231.636 Tant 38.435 vlsr   42.14 glat  0.202 glon 197.618 source G197.5 
Fstart 1421.877 fstop 1423.883 spacing 0.009375 bw    2.400 fbw    2.000 MHz nfreq 256 nsam 5242880 npoint 214 integ     3 sigma    1.322 bsw 0
Spectrum      3 integration periods
 266.184  269.421  272.608  269.370  269.074  270.652  268.153  269.155  269.155  269.156  266.346  268.776  269.470  267.316  268.273  268.411  269.076  269.547  272.264  272.027  269.949  270.133  270.097  269.252  270.675  268.862  270.775  271.542  274.477  271.166  269.763  271.066  273.493  270.753  268.284  269.541  270.105  273.226  269.741  269.487  271.121  270.760  268.464  272.637  269.097  272.074  274.076  270.886  271.717  270.756  268.214  267.964  269.662  268.591  269.383  268.549  269.080  269.082  274.040  269.256  266.467  270.607  270.071  267.720  269.791  268.887  270.963  266.785  268.096  270.342  271.525  269.412  268.369  269.620  269.929  269.647  270.723  270.207  269.469  271.903  269.929  268.508  270.270  271.708  270.792  268.308  269.619  269.673  269.288  266.820  270.600  269.555  269.029  268.272  267.924  276.214  270.461  269.845  271.145  267.966  268.664  270.879  270.067  269.819  270.242  267.148  270.828  271.040  271.077  274.218  270.679  271.357  270.779  270.632  272.826  270.910  269.938  273.767  269.902  270.121  267.201  269.732  273.795  268.979  271.035  272.541  271.497  269.814  270.594  270.364  268.213  270.539  278.411  267.467  271.567  269.989  270.605  269.865  270.812  270.889  271.702  271.868  272.403  271.656  269.262  272.781  271.638  272.144  270.525  268.050  270.293  268.243  272.339  271.292  270.164  271.686  268.274  270.681  270.083  271.825  268.099  268.542  269.845  268.674  269.915  271.443  272.914  272.912  266.755  269.112  269.336  269.976  268.917  269.898  269.934  270.130  266.350  269.581  270.388  269.772  268.011  272.821  273.346  269.436  269.867  269.988  273.584  272.133  273.796  273.623  268.540  268.546  271.232  270.230  270.132  268.209  270.025  269.218  271.575  269.892  271.147  271.818  269.954  268.816  268.397  266.907  267.033  269.069  268.250  268.731  269.705  270.740  267.941  267.291 
DATE 2017:067:01:56:32 obsn 607 az 181 el 66 freq_MHz  1422.8800 Tsys 231.636 Tant 41.027 vlsr   42.19 glat  0.200 glon 200.118 source G200.0 
Fstart 1421.877 fstop 1423.883 spacing 0.009375 bw    2.400 fbw    2.000 MHz nfreq 256 nsam 5242880 npoint 214 integ     4 sigma    1.145 bsw 0
Spectrum      4 integration periods
 265.968  270.634  272.121  272.784  269.490  270.394  271.219  269.187  270.381  269.874  271.985  272.914  269.991  269.227  271.494  273.872  267.784  271.142  270.374  271.025  270.475  270.270  270.628  271.561  271.886  271.056  272.098  269.851  271.437  270.136  272.548  275.084  271.877  269.758  270.768  271.164  269.952  269.379  268.493  271.419  271.897  271.198  271.950  270.324  270.188  269.969  270.634  269.713  272.384  273.257  268.605  271.662  272.139  272.945  270.385  270.907  270.321  271.491  272.406  271.706  270.513  271.764  270.725  270.905  270.681  273.835  270.688  268.355  270.374  270.104  270.912  272.755  270.773  269.127  271.940  271.960  270.644  271.863  269.976  271.459  273.645  272.437  272.003  271.843  272.627  271.828  270.615  273.126  270.031  271.946  271.220  271.828  273.563  268.713  271.347  283.097  273.626  272.854  271.464  270.278  274.899  272.498  273.228  273.418  274.495  273.883  273.964  272.283  274.413  275.749  274.674  272.932  271.699  271.529  271.950  271.641  271.454  273.453  272.535  271.314  273.606  273.875  273.212  272.562  271.930  270.919  272.220  273.534  273.592  272.320  273.372  272.587  276.679  271.022  273.310  274.415  271.010  273.052  272.671  269.589  275.198  274.219  273.201  272.888  272.895  274.441  271.568  275.282  271.952  271.053  274.859  272.785  274.106  274.975  274.454  274.222  275.683  274.269  274.440  270.323  273.312  271.487  274.162  272.594  274.921  273.938  271.912  271.302  274.504  271.969  272.223  273.197  274.293  272.834  272.516  274.137  274.158  271.381  272.736  275.240  273.054  273.424  274.146  274.304  276.325  273.984  275.021  272.976  272.696  274.345  272.897  273.943  272.421  272.368  271.711  273.522  275.687  275.325  273.514  273.668  273.326  273.791  275.295  271.450  272.893  271.740  275.216  273.082  272.890  274.205  273.928  273.180  273.549  275.196 
DATE 2017:067:01:56:53 obsn 608 az 179 el 64 freq_MHz  1422.8800 Tsys 231.636 Tant 38.796 vlsr   42.16 glat  0.197 glon 202.618 source G202.5 
Fstart 1421.877 fstop 1423.883 spacing 0.009375 bw    2.400 fbw    2.000 MHz nfreq 256 nsam 5242880 npoint 214 integ     4 sigma    1.145 bsw 0
Spectrum      4 integration periods
 267.009  267.493  268.104  270.395  272.830  272.480  271.371  269.762  266.832  269.103  269.406  266.425  267.812  269.238  271.329  268.268  269.879  267.630  269.988  271.023  271.302  270.825  269.898  272.605  273.354  267.304  268.918  270.104  271.534  271.392  271.008  268.245  271.941  268.853  270.582  272.358  272.107  269.861  270.083  269.738  268.348  270.008  270.095  269.549  270.268  270.313  269.033  270.096  270.107  269.151  269.133  271.073  269.568  268.442  268.671  270.649  270.230  271.867  272.634  273.441  270.414  269.207  270.610  273.400  271.569  270.680  270.740  271.030  271.988  269.994  270.982  270.818  270.927  268.945  269.609  270.200  272.443  266.087  272.804  271.043  269.760  270.029  268.311  269.336  270.656  271.279  272.379  269.706  270.018  271.007  271.576  268.977  271.030  269.514  271.379  283.279  268.262  270.758  267.782  268.628  269.934  269.509  269.887  272.160  270.818  270.167  272.081  272.071  272.044  269.854  270.636  271.095  272.668  270.498  269.046  269.142  269.052  271.752  270.888  270.769  272.399  273.140  272.265  272.840  272.744  272.157  270.515  269.141  272.331  271.961  270.810  270.704  270.838  269.525  271.041  268.163  272.067  272.271  269.241  270.073  270.000  271.066  271.075  269.639  272.482  270.560  272.111  270.216  271.006  271.592  271.153  271.095  270.897  273.607  271.061  270.503  271.705  270.156  270.880  270.171  274.643  270.008  271.202  274.391  273.953  273.279  269.406  269.538  270.350  270.603  270.437  269.283  272.548  273.739  271.946  269.907  272.171  271.261  269.575  271.241  272.235  270.635  271.806  272.511  273.214  270.693  271.552  272.551  270.102  271.531  272.941  272.195  271.860  273.289  271.727  271.537  272.930  271.085  272.106  272.453  270.973  270.070  271.371  268.773  271.434  271.659  271.408  269.536  268.342  271.187  271.660  273.120  270.920  270.536 
DATE 2017:067:01:57:14 obsn 609 az 177 el 62 freq_MHz  1422.8800 Tsys 231.636 Tant 39.150 vlsr   42.05 glat  0.195 glon 205.118 source G205.0 
Fstart 1421.877 fstop 1423.883 spacing 0.009375 bw    2.400 fbw    2.000 MHz nfreq 256 nsam 5242880 npoint 214 integ     5 sigma    1.024 bsw 0
Spectrum      5 integration periods
 264.640  267.097  270.882  270.936  270.839  271.267  272.433  266.937  268.986  266.946  269.202  268.410  269.996  269.433  269.213  268.997  270.343  271.167  269.383  270.477  270.141  269.496  269.921  267.777  270.273  271.381  270.773  271.234  270.643  270.683  271.613  272.184  271.151  273.148  269.296  269.197  272.473  269.995  270.262  269.321  270.524  271.320  270.020  270.105  271.088  270.619  270.731  268.106  271.037  271.138  272.681  269.802  268.574  270.532  268.441  272.301  272.003  270.465  270.962  272.917  268.692  272.671  269.749  271.948  271.459  271.494  271.668  270.716  269.087  268.569  268.654  269.994  269.734  271.872  271.363  270.567  270.019  267.900  269.111  269.206  270.745  272.576  269.336  269.388  267.966  270.690  271.234  269.596  272.406  270.279  268.923  272.792  271.758  270.319  270.573  283.588  270.676  271.074  271.200  270.897  271.582  272.262  271.402  273.046  272.606  270.222  273.805  271.390  270.111  271.836  272.341  270.661  272.372  270.867  270.511  270.800  270.419  272.411  271.745  271.371  271.795  270.695  272.445  270.750  270.499  269.164  269.798  272.139  271.237  270.003  271.929  270.228  271.616  270.110  269.059  271.448  269.559  269.382  270.875  269.357  272.039  272.211  269.644  271.202  270.638  271.671  270.063  269.968  270.370  271.153  271.010  267.686  270.905  270.451  272.258  269.822  272.145  271.540  268.984  270.152  268.888  270.534  270.408  272.641  271.892  268.886  270.319  269.377  271.302  268.824  271.930  267.988  269.767  270.768  268.741  270.183  269.126  270.200  269.254  270.371  270.520  271.697  270.178  269.029  270.826  271.474  270.010  270.182  270.774  268.098  269.641  270.418  271.091  269.966  271.644  270.506  270.624  269.700  268.684  267.589  270.464  270.949  268.768  269.835  269.081  268.746  269.288  269.559  268.432  269.544  271.388  268.057  268.357  269.521 
DATE 2017:067:01:57:35 obsn 610 az 175 el 60 freq_MHz  1422.8800 Tsys 231.636 Tant 39.976 vlsr   41.86 glat  0.192 glon 207.618 source G207.5 
Fstart 1421.877 fstop 1423.883 spacing 0.009375 bw    2.400 fbw    2.000 MHz nfreq 256 nsam 5242880 npoint 214 integ     5 sigma    1.024 bsw 0
Spectrum      5 integration periods
 265.884  267.887  269.339  269.394  269.665  267.608  267.937  269.637  269.533  269.705  269.504  269.588  269.625  268.371  268.910  271.314  270.436  270.212  271.837  271.849  269.091  271.204  271.559  271.190  271.835  268.983  270.159  270.481  271.843  273.064  269.162  271.425  272.463  271.872  271.319  270.491  270.060  270.404  269.923  269.217  270.719  269.908  270.717  271.690  270.228  271.842  269.998  270.645  269.801  268.495  271.315  271.971  273.289  270.147  270.096  271.523  271.852  272.000  271.680  270.021  270.782  271.433  272.721  271.334  271.190  272.802  275.006  271.002  273.434  270.101  269.645  270.914  271.495  267.711  270.301  269.370  269.403  269.173  269.055  271.032  270.058  270.016  268.521  270.395  272.204  269.141  270.094  269.615  270.039  271.751  269.504  271.815  270.634  269.139  272.777  280.137  271.937  272.270  270.586  272.553  270.791  271.787  270.043  272.250  271.070  271.370  273.430  270.963  271.012  272.469  272.143  272.470  270.169  272.957  271.690  273.320  272.875  272.714  270.945  270.778  270.451  273.779  271.821  270.609  269.483  270.286  273.918  270.502  270.651  270.976  271.418  272.868  273.905  271.326  269.705  272.296  271.771  268.934  271.074  269.146  271.086  270.267  272.597  271.599  272.033  269.775  272.651  270.394  269.571  272.259  270.460  269.351  270.177  270.156  268.813  271.098  272.254  270.829  269.399  269.483  270.420  269.992  270.490  270.316  270.381  269.488  270.059  269.538  268.994  270.040  270.976  271.977  271.971  270.029  270.674  271.821  270.122  271.074  271.832  271.151  270.864  270.236  270.825  272.596  272.383  268.174  269.848  269.625  268.414  268.953  271.383  269.734  269.122  269.584  271.941  271.661  269.107  270.137  269.384  270.960  268.543  267.947  269.513  266.446  269.175  269.988  269.538  267.395  270.352  271.949  267.608  271.272  269.957  268.422 
DATE 2017:067:01:57:56 obsn 611 az 173 el 57 freq_MHz  1422.8800 Tsys 231.636 Tant 40.216 vlsr   41.59 glat  0.188 glon 210.118 source G210.0 
Fstart 1421.877 fstop 1423.883 spacing 0.009375 bw    2.400 fbw    2.000 MHz nfreq 256 nsam 5242880 npoint 214 integ     7 sigma    0.935 bsw 0
Spectrum      6 integration periods
 266.341  267.635  269.410  269.010  267.409  265.840  270.145  269.059  266.440  268.216  268.024  268.586  267.636  269.688  267.228  267.284  268.673  269.214  268.461  271.240  269.456  271.676  272.980  270.416  270.035  270.521  270.166  271.839  269.993  271.246  268.290  269.069  270.165  270.711  268.924  268.783  270.718  269.365  268.901  269.651  270.722  269.498  269.873  271.022  269.989  268.716  270.873  270.238  270.700  270.290  270.568  268.759  270.868  271.559  270.597  269.337  270.407  270.028  271.041  271.292  271.003  268.015  271.045  271.480  271.901  271.946  270.273  270.126  271.663  272.145  272.180  271.206  268.830  269.293  270.215  269.703  268.576  271.059  269.393  270.167  268.576  270.980  268.428  270.839  271.045  270.295  270.695  271.328  270.205  270.847  271.963  271.493  272.680  270.303  271.490  285.059  271.558  271.176  270.588  271.148  271.798  271.307  272.615  272.423  272.367  271.508  272.649  272.057  271.605  274.161  272.062  270.637  272.211  271.066  271.523  271.854  270.910  272.882  269.979  270.537  270.836  271.422  272.192  271.212  272.160  272.194  272.795  272.285  272.410  272.493  271.114  270.981  277.755  271.845  272.574  272.377  273.240  271.074  270.622  270.742  270.916  271.862  270.480  269.647  272.887  271.760  272.490  273.210  269.694  272.116  272.210  272.097  271.797  270.031  271.150  272.988  272.648  270.813  270.271  271.745  273.157  270.984  272.360  271.245  272.065  272.511  273.007  274.374  270.643  270.759  271.334  271.223  272.082  271.356  272.065  271.726  271.572  271.918  271.649  271.922  270.758  271.008  272.167  272.282  272.147  270.323  270.320  272.315  271.390  272.658  271.370  270.171  272.206  271.822  272.251  273.219  271.834  270.464  273.083  270.874  271.115  272.001  269.387  270.193  271.296  271.686  270.717  270.834  271.530  270.308  269.720  272.367  271.598  271.148 
DATE 2017:067:01:58:18 obsn 612 az 172 el 55 freq_MHz  1422.8800 Tsys 231.636 Tant 41.377 vlsr   41.24 glat  0.184 glon 212.618 source G212.5 
Fstart 1421.877 fstop 1423.883 spacing 0.009375 bw    2.400 fbw    2.000 MHz nfreq 256 nsam 5242880 npoint 214 integ     7 sigma    0.935 bsw 0
Spectrum      6 integration periods
 267.165  268.346  269.265  270.113  269.064  268.101  269.305  268.193  269.031  269.028  267.899  270.253  269.475  268.816  267.349  267.378  267.575  268.996  269.943  269.716  267.907  267.543  269.188  270.448  268.680  269.773  268.371  270.776  267.184  269.795  269.614  268.448  269.760  271.198  269.349  271.613  271.970  269.341  269.777  269.713  269.104  270.273  267.629  270.723  269.503  268.755  270.626  270.201  272.443  269.590  268.961  269.581  271.505  270.199  270.027  269.578  270.348  270.805  272.453  270.701  271.224  268.611  271.106  271.408  269.675  269.997  269.532  269.530  269.822  269.226  269.296  270.000  269.071  269.511  269.883  271.793  270.255  271.703  271.859  270.217  269.268  271.007  267.785  268.897  270.707  271.434  269.958  269.271  270.611  270.255  270.351  269.561  270.033  271.101  270.878  282.303  270.893  270.862  271.827  270.481  269.294  272.052  270.005  272.404  273.481  271.202  272.057  272.257  271.951  273.312  271.484  271.695  270.245  271.748  270.286  272.922  272.130  271.249  271.704  271.750  272.377  272.872  274.170  271.422  270.523  269.292  272.197  271.467  270.877  271.054  270.774  269.657  274.701  272.481  270.688  270.822  271.883  272.206  272.194  271.253  270.348  272.794  269.916  271.542  269.578  269.747  272.509  268.877  271.489  271.064  269.235  270.984  270.454  270.030  271.318  271.121  272.386  270.725  269.283  271.976  271.088  272.300  271.371  272.667  271.254  271.943  270.872  271.491  271.843  271.678  270.034  270.943  270.473  269.919  272.670  271.214  271.959  272.868  272.122  272.159  272.048  272.117  271.052  272.011  272.392  270.872  270.713  269.903  270.641  269.717  271.410  272.677  270.425  271.348  270.024  273.082  270.645  271.836  269.285  270.635  269.880  272.135  269.694  271.392  269.722  271.491  270.960  271.798  267.935  269.878  268.549  269.490  271.560  269.202 
DATE 2017:067:01:58:39 obsn 613 az 170 el 53 freq_MHz  1422.8800 Tsys 231.636 Tant 38.241 vlsr   40.82 glat  0.180 glon 215.118 source G215.0 
Fstart 1421.877 fstop 1423.883 spacing 0.009375 bw    2.400 fbw    2.000 MHz nfreq 256 nsam 5242880 npoint 214 integ     8 sigma    0.865 bsw 0
Spectrum      7 integration periods
 265.119  266.518  266.876  267.678  267.312  267.431  266.479  268.118  265.958  265.686  268.305  268.348  268.072  266.220  266.484  266.945  268.661  267.927  267.140  267.780  267.858  268.150  268.087  268.048  268.526  270.031  267.285  267.374  269.064  269.211  268.059  266.552  269.207  268.663  268.078  266.980  269.057  269.253  267.395  266.910  268.970  267.816  267.881  268.682  269.450  268.419  268.927  267.940  267.765  268.033  270.036  269.688  269.675  268.356  266.926  268.795  268.310  268.875  268.743  268.118  270.579  267.638  269.971  267.412  267.661  270.618  268.996  269.290  270.068  268.369  267.561  269.536  268.617  266.758  267.573  267.088  267.893  268.528  267.421  268.605  267.563  268.776  268.105  269.166  266.515  268.922  267.843  268.049  268.282  267.771  269.329  268.727  269.065  270.770  267.293  272.904  268.143  268.260  268.285  269.931  269.050  268.452  268.383  268.493  271.050  268.494  269.915  268.389  270.418  271.441  267.876  269.595  269.882  270.155  270.303  269.630  268.419  268.445  271.550  268.798  268.816  269.741  271.003  269.274  266.993  268.577  271.414  270.057  269.389  268.008  269.469  268.821  269.899  270.235  268.172  272.510  270.062  269.065  270.001  269.840  270.119  268.207  269.785  270.728  270.231  269.960  267.606  269.747  270.514  270.730  268.140  270.184  270.765  268.575  269.206  270.677  268.866  269.944  268.243  266.562  269.180  269.657  269.526  269.439  269.920  272.181  268.620  268.748  267.486  267.938  269.436  269.242  269.123  270.624  270.390  271.186  269.688  269.010  267.108  269.406  268.435  269.289  270.277  272.013  271.480  272.662  269.554  269.046  269.446  268.960  269.882  270.636  270.145  269.885  270.234  270.367  270.283  269.622  270.757  269.366  269.357  268.966  269.489  268.327  270.414  268.984  269.185  268.405  267.590  268.442  268.365  269.802  268.770  269.220 
DATE 2017:067:01:59:00 obsn 614 az 169 el 50 freq_MHz  1422.8800 Tsys 231.636 Tant 36.875 vlsr   40.31 glat  0.176 glon 217.618 source G217.5 
Fstart 1421.877 fstop 1423.883 spacing 0.009375 bw    2.400 fbw    2.000 MHz nfreq 256 nsam 5242880 npoint 214 integ     8 sigma    0.865 bsw 0
Spectrum      7 integration periods
 263.489  264.797  268.190  265.159  265.435  266.963  266.166  266.299  266.524  264.893  265.227  267.156  264.625  265.538  264.783  265.541  266.155  267.820  266.762  267.761  266.987  268.617  266.713  266.385  266.780  267.146  267.269  267.034  268.059  265.005  265.625  266.342  267.873  264.886  266.215  267.312  268.300  266.525  267.109  266.972  267.704  267.478  267.126  266.977  266.562  267.438  267.369  266.997  267.981  267.337  267.361  267.615  267.122  267.477  267.431  266.891  266.865  266.202  269.263  267.698  268.782  267.592  267.218  266.767  267.172  268.437  267.957  267.696  267.654  267.511  271.008  266.512  267.364  265.939  267.420  269.252  266.325  267.703  266.246  268.105  266.972  266.497  268.331  267.464  267.869  265.964  267.288  267.954  267.163  265.679  265.870  265.972  270.168  266.056  266.817  274.280  267.499  269.186  267.824  267.589  269.591  268.421  266.900  267.321  268.257  267.493  268.342  267.652  267.668  268.718  269.764  266.346  266.810  268.682  268.734  267.230  267.067  268.746  268.272  265.982  267.097  268.491  268.709  268.189  270.143  269.126  268.957  267.795  267.821  267.785  268.295  267.982  270.204  266.807  268.034  268.408  268.735  267.624  269.493  267.323  267.295  265.163  268.665  267.702  267.761  267.544  266.233  269.257  266.652  267.603  267.369  268.081  267.272  267.577  268.388  268.328  269.958  268.280  268.857  267.682  268.802  268.154  267.895  268.057  268.671  269.136  267.266  266.253  266.951  268.245  269.825  269.020  270.280  269.646  267.919  267.174  268.349  269.571  267.862  269.489  267.513  268.800  267.697  268.855  269.965  269.679  269.674  269.209  269.184  266.530  268.717  267.691  268.192  269.434  268.394  266.870  267.162  267.559  267.675  267.432  266.156  267.503  268.936  267.440  266.509  266.654  267.691  266.956  267.037  266.141  267.172  268.680  268.376  266.609 
DATE 2017:067:01:59:21 obsn 615 az 168 el 48 freq_MHz  1422.8800 Tsys 231.636 Tant 36.916 vlsr   39.73 glat  0.171 glon 220.118 source G220.0 
Fstart 1421.877 fstop 1423.883 spacing 0.009375 bw    2.400 fbw    2.000 MHz nfreq 256 nsam 5242880 npoint 214 integ     9 sigma    0.809 bsw 0
Spectrum      8 integration periods
 263.448  265.536  268.121  265.472  267.074  265.851  266.656  268.426  266.414  264.574  266.086  266.727  265.715  266.516  265.838  265.518  267.308  267.039  267.242  269.309  264.703  267.935  267.507  268.467  268.468  268.743  266.703  267.037  269.611  266.900  267.747  267.645  268.027  267.211  267.116  267.121  266.175  267.127  267.913  266.836  267.827  268.236  266.172  266.588  268.755  267.800  268.090  266.938  267.150  267.582  266.740  267.491  268.253  267.959  267.995  268.204  267.329  267.770  268.981  266.602  265.961  267.947  268.148  268.242  267.562  268.103  268.843  267.181  268.417  267.700  266.614  268.160  267.226  267.785  266.403  266.364  266.929  267.440  266.266  267.303  265.738  267.135  268.177  266.293  266.030  267.087  266.425  268.468  268.031  266.399  270.382  268.395  267.669  266.070  267.145  271.890  268.265  268.216  269.637  268.109  269.597  266.858  269.082  267.331  268.383  267.660  269.358  267.028  267.259  270.023  268.830  268.743  269.992  267.360  267.289  268.096  268.369  271.527  268.972  266.289  266.491  268.726  269.522  268.424  267.542  269.255  268.982  268.095  267.138  266.915  267.665  268.023  271.673  268.303  268.168  268.337  266.902  268.701  268.732  268.199  268.424  267.437  268.724  268.521  268.513  267.607  269.972  269.448  268.297  267.874  269.247  267.051  267.342  268.246  269.246  268.439  269.201  269.326  268.626  268.713  268.134  268.060  268.510  267.127  269.052  268.871  269.185  267.541  267.984  268.387  267.440  266.889  267.758  269.797  267.967  266.837  267.638  267.454  268.995  267.876  267.693  268.417  267.527  269.881  268.261  269.035  269.544  269.284  269.608  268.485  270.233  269.324  269.338  267.181  268.934  268.984  268.833  266.721  267.765  267.820  266.858  267.983  268.446  267.957  267.335  267.987  267.895  266.031  267.704  267.189  266.955  267.221  269.301  267.827 
DATE 2017:067:01:59:42 obsn 616 az 167 el 45 freq_MHz  1422.8800 Tsys 231.636 Tant 36.745 vlsr   39.07 glat  0.166 glon 222.618 source G222.5 
Fstart 1421.877 fstop 1423.883 spacing 0.009375 bw    2.400 fbw    2.000 MHz nfreq 256 nsam 5242880 npoint 214 integ    10 sigma    0.763 bsw 0
Spectrum      9 integration periods
 263.610  265.102  265.700  264.657  266.890  265.061  265.532  265.766  265.890  265.904  265.035  263.121  264.514  263.400  265.200  265.124  266.014  264.761  264.644  267.210  264.497  263.570  264.673  266.152  267.618  266.702  265.735  265.152  265.999  265.003  264.002  265.870  265.382  266.075  265.316  267.407  265.967  265.122  264.583  266.219  265.119  266.212  266.195  265.787  266.981  265.127  265.572  265.041  266.904  265.541  267.499  266.253  265.850  267.404  265.705  264.686  264.967  264.473  266.955  265.827  266.317  266.103  265.116  265.792  266.560  265.302  267.688  265.596  266.791  266.283  267.495  265.928  265.234  266.876  265.996  267.076  266.326  265.841  268.258  266.851  267.603  264.730  266.926  264.718  265.463  267.940  266.832  267.150  265.847  266.641  268.303  265.331  266.876  265.185  266.452  269.422  267.253  266.270  266.617  265.977  266.339  266.011  267.704  266.467  268.078  268.823  267.623  267.083  266.614  267.873  267.235  266.741  267.309  269.505  267.402  267.793  266.944  267.128  267.803  266.515  267.373  265.621  268.265  266.606  267.143  266.570  267.024  267.306  268.623  268.410  267.013  269.116  271.697  267.137  267.835  267.084  266.802  268.026  269.485  267.115  267.286  266.139  267.510  267.263  267.271  268.475  267.901  267.048  267.925  268.857  269.520  267.005  267.821  268.709  267.116  268.521  267.345  268.136  267.615  267.285  266.660  266.754  267.992  266.228  267.302  268.055  267.507  266.810  266.645  267.840  268.159  268.276  266.563  266.405  266.834  266.984  267.102  267.898  267.296  268.062  267.484  267.786  267.571  269.458  268.466  269.437  268.053  268.423  268.192  268.367  266.843  266.402  269.396  267.862  268.165  268.586  268.945  267.126  266.402  267.509  267.979  266.066  267.954  265.370  267.761  267.570  267.438  267.207  266.301  266.353  267.991  267.312  267.488  268.732 
DATE 2017:067:02:00:04 obsn 617 az 166 el 43 freq_MHz  1422.8800 Tsys 231.636 Tant 35.308 vlsr   38.34 glat  0.160 glon 225.118 source G225.0 
Fstart 1421.877 fstop 1423.883 spacing 0.009375 bw    2.400 fbw    2.000 MHz nfreq 256 nsam 5242880 npoint 214 integ    10 sigma    0.763 bsw 0
Spectrum      9 integration periods
 264.364  265.887  265.728  266.463  263.355  265.741  266.489  264.893  265.522  265.199  263.517  263.002  264.099  263.808  263.668  263.834  265.015  263.145  265.174  264.148  263.438  264.346  264.817  265.483  265.928  265.536  266.291  266.064  266.387  266.482  264.467  264.537  264.998  265.706  266.174  264.000  264.988  265.001  265.090  265.061  265.594  265.385  266.052  266.086  267.280  267.630  265.325  264.646  265.272  265.855  264.928  264.793  264.099  265.495  264.681  265.884  266.468  264.634  267.487  265.255  264.938  267.023  266.131  264.515  266.251  265.061  265.746  266.208  264.843  265.229  266.574  265.621  264.485  264.941  263.461  265.978  265.715  263.597  263.850  264.390  264.932  265.050  266.065  265.784  264.516  264.551  265.513  265.359  267.281  267.956  267.633  265.309  265.487  265.883  265.529  265.596  265.228  264.454  266.652  265.439  267.266  266.027  265.024  265.911  267.519  265.275  265.660  266.104  266.806  267.324  266.492  266.911  265.333  264.416  268.223  265.901  266.469  267.454  266.857  265.759  266.648  267.039  268.567  265.232  265.896  266.019  267.427  265.730  267.320  265.556  265.946  265.480  268.915  265.692  265.585  266.614  265.901  265.807  267.651  266.012  266.685  266.232  266.887  266.339  266.850  267.651  267.033  267.527  267.045  266.414  267.019  266.199  266.953  267.961  265.789  266.108  266.751  267.237  265.045  267.689  267.595  266.130  266.835  266.721  265.964  267.083  264.739  265.979  266.954  266.640  266.257  266.961  266.191  268.212  266.298  265.518  265.416  266.533  265.919  267.347  267.148  265.998  266.195  266.186  268.314  267.398  268.544  267.932  267.078  267.063  265.602  268.000  266.176  267.427  267.608  265.169  266.779  267.434  266.730  266.757  267.692  266.510  266.281  266.302  265.428  265.795  265.753  265.833  268.119  266.759  266.263  267.998  265.583  267.593 
DATE 2017:067:02:00:41 obsn 618 az 165 el 38 freq_MHz  1422.8800 Tsys 231.636 Tant 34.373 vlsr   36.66 glat  0.149 glon 230.118 source G230.0 
Fstart 1421.877 fstop 1423.883 spacing 0.009375 bw    2.400 fbw    2.000 MHz nfreq 256 nsam 5242880 npoint 214 integ     8 sigma    0.865 bsw 0
Spectrum      7 integration periods
 265.254  264.702  266.757  264.792  265.915  264.162  265.414  266.700  265.879  265.236  266.730  266.190  264.161  264.604  264.916  263.731  264.504  265.498  263.693  267.069  265.445  267.070  264.559  267.302  264.918  266.727  266.073  267.745  268.054  266.009  264.995  264.368  268.197  265.410  265.549  265.679  264.206  263.839  266.112  267.092  267.312  267.019  264.725  266.736  266.415  267.592  265.322  263.942  267.512  266.288  265.207  266.472  264.180  265.352  266.408  266.510  265.424  265.331  265.528  267.278  264.512  266.109  266.243  265.925  265.837  265.856  265.717  266.919  264.313  266.708  266.827  266.024  266.955  264.734  264.149  264.397  264.856  263.995  264.967  266.207  266.259  263.780  264.369  264.837  265.216  266.329  265.952  266.610  266.293  265.065  264.066  265.095  265.897  265.914  264.352  301.179  266.946  266.478  266.088  264.779  268.522  265.969  265.617  265.719  266.040  265.576  267.194  264.631  266.371  268.100  265.441  264.306  265.334  265.218  266.168  265.801  265.990  266.583  264.084  265.199  264.732  266.268  267.088  264.410  264.962  264.911  265.788  262.751  264.197  265.497  266.397  263.723  266.809  264.652  266.785  265.281  265.488  266.821  265.991  265.488  267.448  266.240  265.525  264.286  264.795  264.556  263.545  267.843  262.865  266.850  264.142  263.564  264.355  265.793  266.789  268.401  267.884  263.269  267.248  262.729  264.477  266.130  263.646  265.045  266.786  264.217  265.223  265.636  266.658  265.547  266.112  266.363  265.224  267.335  263.851  264.301  264.093  265.956  266.286  264.444  264.160  266.077  264.462  264.390  264.111  266.844  264.704  265.754  263.554  265.956  265.516  263.939  264.133  264.227  265.007  261.103  263.523  265.291  263.990  261.588  265.781  265.847  265.499  264.006  264.328  263.002  262.657  265.097  265.012  264.351  263.136  267.425  265.007  264.279 
DATE 2017:067:02:01:02 obsn 619 az 164 el 36 freq_MHz  1422.8800 Tsys 231.636 Tant 34.309 vlsr   35.71 glat  0.142 glon 232.618 source G232.5 
Fstart 1421.877 fstop 1423.883 spacing 0.009375 bw    2.400 fbw    2.000 MHz nfreq 256 nsam 5242880 npoint 214 integ     8 sigma    0.865 bsw 0
Spectrum      7 integration periods
 261.095  263.151  269.375  264.231  264.261  264.269  264.429  262.933  262.956  265.423  262.795  270.428  262.923  262.356  263.175  264.356  264.712  263.547  263.854  268.747  262.988  263.603  264.665  267.166  266.130  264.425  264.662  265.078  268.238  264.151  265.155  264.883  270.276  264.417  263.481  263.622  264.616  264.249  262.389  263.118  270.313  271.506  264.746  262.603  264.321  264.818  265.159  264.123  265.521  270.123  263.983  263.610  264.247  266.896  264.950  264.982  263.307  265.053  268.015  266.069  265.646  265.017  270.361  265.025  265.899  265.562  265.134  264.842  265.742  264.465  271.337  265.764  263.436  265.613  265.041  265.390  264.309  263.561  263.944  267.942  263.471  263.635  265.188  263.314  263.384  264.123  263.317  270.095  264.436  264.860  261.751  263.177  267.194  264.113  265.475  322.850  265.073  264.947  264.928  263.196  271.161  265.546  265.862  265.035  266.352  264.945  265.569  265.167  266.093  271.678  263.457  265.594  263.905  264.016  264.980  264.414  264.704  270.953  265.628  265.549  264.263  264.705  267.834  262.862  265.692  265.048  270.309  263.631  263.883  263.978  266.910  261.410  267.786  264.097  267.584  263.258  264.464  265.642  267.632  265.285  262.790  265.368  262.970  266.627  264.177  263.500  263.788  270.840  263.421  266.402  264.543  264.648  262.671  263.728  263.496  272.311  269.347  264.221  263.138  264.236  264.791  264.753  262.375  263.920  269.889  264.370  262.533  263.644  265.117  262.612  264.600  262.052  265.275  267.872  263.521  262.356  262.759  265.867  262.982  264.600  263.769  269.206  264.642  263.546  263.940  266.800  262.953  264.111  265.379  262.489  266.611  264.132  262.534  262.445  268.380  262.625  262.708  263.020  262.343  262.374  264.496  262.989  269.915  262.388  262.666  261.862  264.027  261.670  262.556  262.776  263.578  269.740  262.984  264.737 
DATE 2017:067:02:01:23 obsn 620 az 163 el 33 freq_MHz  1422.8800 Tsys 231.636 Tant 30.066 vlsr   34.70 glat  0.136 glon 235.118 source G235.0 
Fstart 1421.877 fstop 1423.883 spacing 0.009375 bw    2.400 fbw    2.000 MHz nfreq 256 nsam 5242880 npoint 214 integ     9 sigma    0.809 bsw 0
Spectrum      8 integration periods
 260.716  259.252  264.147  262.577  261.677  261.379  261.372  260.884  261.710  261.025  260.921  265.823  259.112  260.387  262.012  261.035  260.964  263.236  261.947  265.243  261.634  261.025  260.437  262.563  263.111  262.085  262.270  261.048  264.852  260.059  261.732  261.309  265.826  261.314  260.451  261.746  261.906  262.222  260.601  261.573  267.251  266.658  262.000  261.105  261.388  261.629  262.224  262.182  261.742  263.943  263.451  260.929  261.752  263.093  262.099  262.324  261.823  261.918  264.267  262.296  262.735  260.406  265.630  261.897  264.276  261.318  264.590  262.230  261.929  261.983  266.240  262.329  262.202  262.180  262.234  260.643  262.330  261.522  260.164  263.895  260.966  263.710  261.450  261.705  261.652  260.964  263.680  263.777  262.064  261.875  262.384  263.140  263.331  260.977  262.249  319.423  264.408  262.148  261.803  261.824  266.189  262.281  263.070  261.422  263.235  263.375  264.593  262.562  261.126  267.239  264.955  262.060  262.352  262.788  261.708  261.246  262.305  267.164  262.891  261.733  262.278  262.721  263.681  262.593  262.167  261.634  264.877  261.072  263.241  261.267  263.300  261.534  266.563  262.711  263.346  261.127  261.279  261.629  264.283  263.633  262.908  262.835  260.494  260.587  260.713  262.390  262.001  265.694  259.972  260.859  261.287  261.625  262.370  262.681  261.124  265.713  265.587  261.510  261.448  261.844  262.521  262.930  260.710  261.468  266.550  261.624  260.815  261.310  259.953  261.776  261.525  261.288  261.892  264.614  261.476  261.480  261.051  263.020  260.851  261.201  260.856  261.415  261.026  261.726  259.599  264.857  260.838  261.566  261.125  260.427  261.821  261.417  260.462  258.182  262.802  260.654  260.317  260.790  260.537  260.584  259.534  259.925  264.141  260.532  260.000  261.603  259.077  259.668  259.905  258.907  261.075  264.107  259.579  259.402 
DATE 2017:067:02:01:44 obsn 621 az 163 el 31 freq_MHz  1422.8800 Tsys 231.636 Tant 30.385 vlsr   33.62 glat  0.129 glon 237.618 source G237.5 
Fstart 1421.877 fstop 1423.883 spacing 0.009375 bw    2.400 fbw    2.000 MHz nfreq 256 nsam 5242880 npoint 214 integ     9 sigma    0.809 bsw 0
Spectrum      8 integration periods
 258.782  261.063  262.668  260.250  261.595  261.554  259.907  261.886  259.721  260.836  259.435  263.452  259.457  259.236  259.918  260.350  260.724  260.230  259.842  263.206  261.587  261.438  262.112  260.628  261.822  259.963  258.964  262.432  264.495  261.221  261.418  259.929  263.938  261.605  261.066  260.990  262.278  261.304  258.596  261.285  262.451  262.834  261.551  261.180  260.259  261.399  262.533  260.535  260.416  265.211  260.223  260.720  260.315  260.085  262.497  261.817  261.383  261.550  263.518  262.700  259.756  259.127  263.907  261.426  261.387  261.509  262.602  261.191  261.968  262.079  264.702  260.544  261.499  261.637  260.051  259.402  260.066  259.630  260.166  263.278  259.694  259.989  259.544  259.430  261.950  260.613  259.387  261.310  260.225  260.264  259.355  260.138  261.768  260.373  260.423  320.811  263.014  260.055  260.705  261.007  263.492  260.966  262.003  260.872  260.129  260.225  261.072  260.687  260.914  264.270  261.427  262.262  261.349  261.506  260.528  261.361  260.706  263.379  260.455  260.490  261.264  261.561  264.008  261.031  260.960  261.455  263.856  259.553  260.966  260.217  262.176  259.069  268.021  260.967  261.700  259.719  260.755  259.262  262.431  261.061  261.536  259.459  259.935  259.452  260.045  260.623  258.601  262.650  258.307  262.219  259.937  261.104  259.443  260.634  260.214  262.496  262.882  260.180  260.393  259.565  259.780  260.897  259.552  261.315  261.470  261.649  259.026  258.669  261.421  259.991  258.715  258.816  262.359  263.516  259.675  259.369  259.657  261.670  259.935  258.729  258.976  263.064  260.686  261.369  261.088  261.624  259.868  259.437  260.833  259.211  259.695  260.726  259.963  261.029  262.155  257.578  257.965  258.803  261.801  257.524  260.799  258.232  262.853  258.930  259.007  258.851  257.716  260.161  258.918  259.362  258.502  260.543  258.471  257.939 
DATE 2017:067:02:02:06 obsn 622 az 162 el 29 freq_MHz  1422.8800 Tsys 231.636 Tant 29.822 vlsr   32.47 glat  0.122 glon 240.118 source G240.0 
Fstart 1421.877 fstop 1423.883 spacing 0.009375 bw    2.400 fbw    2.000 MHz nfreq 256 nsam 5242880 npoint 214 integ    10 sigma    0.763 bsw 0
Spectrum      9 integration periods
 258.363  258.779  261.712  261.240  262.394  260.692  262.676  260.323  261.515  262.131  262.635  262.351  260.039  259.758  261.221  260.834  260.680  259.832  259.863  264.484  261.339  261.657  260.913  262.783  261.252  260.302  260.166  261.462  260.564  260.765  261.732  260.879  260.942  261.854  262.373  261.284  262.042  261.733  261.918  261.607  261.767  262.342  261.512  260.137  260.435  262.424  259.989  259.886  261.698  262.867  259.986  259.820  260.074  263.274  262.078  261.252  260.925  262.655  262.060  261.506  260.130  261.896  261.806  261.520  260.434  260.810  261.799  260.804  258.203  260.470  261.842  258.888  260.143  260.595  261.945  260.419  259.252  258.876  258.383  261.697  260.312  259.752  260.913  259.654  259.477  258.628  260.010  260.832  260.539  260.976  260.559  259.928  259.959  259.960  261.203  324.287  260.580  259.662  259.799  260.126  260.863  259.474  259.873  259.046  260.534  260.714  259.687  259.777  261.011  261.061  260.911  259.760  259.396  259.456  259.801  260.234  260.433  261.963  259.589  258.561  258.800  259.592  260.306  259.499  259.001  258.495  260.214  260.017  258.325  258.922  259.158  259.316  276.724  259.315  258.658  258.189  259.099  260.144  260.954  258.158  258.255  257.939  260.224  258.753  257.557  257.622  259.450  259.296  257.547  259.026  259.492  258.374  258.165  258.679  259.500  260.289  259.488  258.606  257.728  256.852  257.913  258.949  257.541  259.218  259.756  257.763  256.848  257.244  258.260  258.658  257.876  257.476  257.359  259.979  257.811  258.024  258.711  258.458  257.005  257.170  257.682  259.278  258.089  258.291  257.666  258.827  256.534  258.019  257.629  258.770  258.754  258.892  256.694  258.667  257.499  256.766  257.492  256.081  257.540  255.597  256.807  257.218  257.222  255.146  256.240  255.851  255.389  257.257  256.910  256.002  257.416  258.040  255.366  257.377 
DATE 2017:067:02:02:27 obsn 623 az 162 el 26 freq_MHz  1422.8800 Tsys 231.636 Tant 42.417 vlsr   31.27 glat  0.114 glon 242.618 source G242.5 
Fstart 1421.877 fstop 1423.883 spacing 0.009375 bw    2.400 fbw    2.000 MHz nfreq 256 nsam 5242880 npoint 214 integ    11 sigma    0.724 bsw 0
Spectrum     10 integration periods
 269.367  270.519  276.933  271.767  272.824  270.431  273.055  272.038  270.688  271.542  271.616  276.938  271.516  270.682  271.271  273.535  271.601  271.682  272.701  277.295  272.806  272.197  273.994  276.789  274.434  272.773  273.217  273.128  274.988  274.854  272.785  272.532  277.109  272.673  271.517  272.638  272.450  274.290  273.726  272.623  277.073  277.218  272.626  272.789  270.660  274.689  273.694  273.840  272.185  276.672  272.319  272.986  273.084  272.909  272.284  272.654  273.565  274.722  275.936  272.712  273.725  274.089  276.978  274.337  273.932  273.163  275.144  274.278  273.441  272.861  278.110  272.943  273.552  271.759  273.080  272.661  272.605  272.303  273.542  277.279  272.446  272.536  272.560  274.746  273.307  272.586  271.360  276.170  274.888  275.965  274.676  271.785  276.048  272.415  271.897  325.039  275.170  272.048  273.688  273.090  276.194  273.716  272.516  272.844  274.285  272.066  273.834  273.977  273.625  277.310  271.949  274.299  272.716  272.091  273.842  273.189  271.102  277.220  273.748  272.737  272.837  273.805  273.809  271.915  273.263  272.746  276.480  273.225  272.377  272.726  272.925  273.096  301.098  272.360  274.869  272.776  272.695  274.223  275.926  273.886  272.398  272.948  272.146  273.221  274.322  272.380  271.429  274.719  274.351  271.917  272.325  272.508  271.152  271.848  272.425  277.098  275.517  271.668  271.549  271.233  272.397  272.105  272.493  272.400  275.611  271.612  270.353  272.183  271.986  270.677  271.762  272.822  272.348  273.946  271.383  271.839  270.871  272.973  271.621  270.722  272.431  274.987  271.633  272.559  271.212  274.630  272.360  271.898  271.576  272.775  272.197  272.815  272.621  271.698  274.254  272.487  273.457  271.247  271.620  271.426  271.942  271.064  274.349  272.361  270.439  270.787  271.376  271.428  270.411  270.827  269.829  275.016  270.801  271.054 
DATE 2017:067:02:02:56 obsn 624 az 160 el 21 freq_MHz  1422.8800 Tsys 231.636 Tant 42.772 vlsr   28.68 glat  0.099 glon 247.618 source G247.5 
Fstart 1421.877 fstop 1423.883 spacing 0.009375 bw    2.400 fbw    2.000 MHz nfreq 256 nsam 5242880 npoint 214 integ     1 sigma    2.289 bsw 0
Spectrum      1 integration periods
 268.687  272.012  277.425  271.478  271.844  274.504  272.661  265.898  270.169  270.982  273.777  277.156  271.253  274.084  269.728  272.105  275.032  274.278  271.695  280.785  270.821  269.098  267.469  274.826  270.875  270.253  268.561  272.231  271.487  269.479  269.308  274.417  277.407  274.379  273.435  269.514  268.150  263.424  274.108  272.699  276.988  278.648  271.073  272.413  274.302  276.058  273.169  272.309  269.523  278.202  269.978  271.658  273.255  272.266  269.848  271.676  269.633  269.427  277.281  274.792  272.894  276.983  277.842  270.212  273.571  274.786  277.103  271.411  275.863  272.165  279.068  276.092  272.808  271.777  275.229  265.946  275.117  273.024  275.108  277.138  273.255  273.482  275.806  273.784  269.744  268.045  272.655  277.123  273.048  279.407  274.373  271.779  277.908  275.049  276.821  277.984  273.894  275.457  268.905  272.454  277.047  274.731  273.044  273.938  276.366  276.560  273.746  273.095  274.448  281.113  274.987  272.919  269.258  272.109  274.130  279.615  271.924  277.701  275.426  275.661  269.274  275.375  274.254  274.177  270.521  271.475  276.607  272.683  275.558  272.649  273.805  270.459  311.585  274.303  276.251  276.705  272.204  276.036  280.795  272.299  269.520  271.593  276.012  268.435  274.170  272.397  274.406  281.215  271.994  273.949  270.086  272.299  266.580  274.316  274.443  278.013  282.449  267.532  278.068  272.267  275.555  276.571  273.966  275.411  284.221  276.723  270.315  273.885  276.756  275.234  272.296  272.632  275.181  277.622  272.319  270.638  271.932  279.294  270.097  274.569  269.058  278.685  273.002  277.942  276.141  276.415  274.478  274.255  274.755  273.066  271.400  269.866  278.554  276.133  282.653  274.486  274.780  272.255  271.593  274.784  275.138  273.866  272.524  273.477  272.731  267.457  270.635  273.457  270.943  270.743  275.849  278.596  275.481  274.066 
DATE 2017:067:02:03:17 obsn 625 az 160 el 19 freq_MHz  1422.8800 Tsys 231.636 Tant 43.379 vlsr   27.30 glat  0.091 glon 250.118 source G250.0 
Fstart 1421.877 fstop 1423.883 spacing 0.009375 bw    2.400 fbw    2.000 MHz nfreq 256 nsam 5242880 npoint 214 integ     1 sigma    2.289 bsw 0
Spectrum      1 integration periods
 269.789  272.565  273.242  274.388  271.967  267.089  272.091  272.136  272.079  271.394  270.507  274.477  269.024  265.899  266.884  274.621  272.099  273.693  277.693  281.466  273.447  273.299  270.706  273.727  276.382  270.592  271.118  276.652  279.834  268.196  278.070  274.703  281.612  272.085  272.734  276.623  271.641  268.366  270.581  275.354  280.617  280.893  270.082  272.137  272.188  276.718  273.443  269.809  269.499  277.247  272.046  272.097  274.891  270.841  275.890  272.219  275.704  275.651  280.211  270.754  268.853  273.081  278.044  274.282  273.578  271.449  271.748  274.644  272.123  269.370  276.555  270.555  277.903  276.978  270.744  269.781  278.513  273.691  268.612  281.654  273.162  270.803  271.512  278.515  271.368  276.705  274.417  274.333  272.403  276.816  272.751  269.114  274.488  274.771  274.565  279.093  277.059  269.180  269.130  273.531  277.602  270.195  272.922  271.838  273.928  271.527  273.566  272.804  275.714  280.722  274.654  273.818  274.818  273.293  274.202  274.205  268.746  283.871  279.920  273.918  279.238  280.262  272.882  272.642  275.301  275.257  281.944  270.780  274.347  273.808  271.945  270.902  298.370  274.874  279.037  277.525  270.163  275.850  279.497  280.844  271.445  277.892  278.999  276.963  269.246  273.140  272.897  283.424  268.722  273.635  275.714  269.924  275.125  273.259  275.909  281.853  276.112  275.252  272.823  275.656  273.208  275.710  274.746  275.051  286.609  275.048  273.248  271.944  275.027  272.717  275.188  277.458  278.593  279.740  278.690  272.589  267.133  274.532  274.747  275.166  272.678  279.097  273.335  273.621  270.712  279.658  275.843  278.785  271.289  274.270  280.764  271.982  274.183  269.857  279.284  275.803  275.028  267.414  275.260  273.265  274.166  275.393  286.104  275.663  273.612  269.410  274.074  275.161  277.376  280.383  271.925  281.336  273.579  272.522 
