DATE 2017:065:01:53:20 obsn   0 az 331 el 12 freq_MHz  1420.4000 Tsys 195.571 Tant 30.510 vlsr   -7.08 glat  0.014 glon 100.118 source G100.0 
Fstart 1419.397 fstop 1421.403 spacing 0.009375 bw    2.400 fbw    2.000 MHz nfreq 256 nsam 5242880 npoint 214 integ     8 sigma    0.730 bsw 0
Spectrum      7 integration periods
 218.375  217.904  217.473  217.282  216.038  216.728  217.180  218.159  216.990  216.194  217.139  216.123  216.316  214.906  215.695  215.736  215.785  216.392  215.674  217.438  215.778  215.451  216.035  216.647  216.914  217.192  216.750  215.539  216.595  215.868  216.647  216.576  216.982  215.925  215.548  216.301  216.478  215.525  215.544  214.927  216.104  214.337  217.021  216.457  215.068  216.534  216.101  217.610  216.503  214.946  215.970  216.043  216.747  216.217  216.360  216.193  217.225  214.817  217.508  214.635  215.464  216.486  215.509  215.043  214.891  217.555  216.353  216.243  227.992  227.246  218.869  247.330  215.245  214.639  214.557  215.446  215.562  215.652  214.451  213.434  214.390  213.832  215.376  214.349  214.345  216.061  213.663  215.551  216.024  217.270  215.753  216.286  216.273  215.918  216.569  214.987  216.744  215.852  217.495  216.664  215.902  216.195  215.372  216.293  215.883  216.375  215.414  216.664  217.350  219.132  219.657  225.148  230.149  237.466  250.835  260.490  267.313  266.025  266.326  261.492  255.469  251.998  248.656  246.095  245.071  247.497  248.681  247.038  244.037  241.447  241.549  240.128  240.552  239.537  242.638  242.495  243.587  248.540  242.277  245.089  245.094  247.145  248.139  246.056  248.654  247.965  249.841  250.204  248.853  248.292  245.965  244.911  240.695  238.240  234.327  230.312  227.796  226.760  225.302  225.905  226.104  226.439  228.401  230.959  229.297  229.234  227.059  227.787  224.249  224.704  223.361  221.239  220.557  220.496  219.539  218.463  215.778  216.426  215.656  216.008  216.311  214.806  215.943  215.656  216.158  216.120  214.751  214.181  214.039  214.858  214.972  214.747  215.045  214.424  213.656  213.692  213.528  213.653  213.612  214.201  215.196  215.769  216.395  214.861  214.704  213.675  215.371  215.039  214.525  213.291  213.402  213.776  214.625  213.756 
DATE 2017:065:01:53:41 obsn   1 az 331 el 14 freq_MHz  1420.4000 Tsys 195.571 Tant 28.780 vlsr   -5.28 glat  0.023 glon 102.618 source G102.5 
Fstart 1419.397 fstop 1421.403 spacing 0.009375 bw    2.400 fbw    2.000 MHz nfreq 256 nsam 5242880 npoint 214 integ     7 sigma    0.789 bsw 0
Spectrum      6 integration periods
 214.943  215.702  215.705  216.160  215.503  213.703  215.956  216.171  215.069  214.385  215.657  215.446  215.500  213.962  213.957  215.697  213.517  212.974  216.221  213.931  214.357  214.401  213.066  215.523  215.285  213.907  215.292  213.542  213.898  214.713  215.915  214.793  213.834  215.114  213.474  215.261  213.377  213.840  215.234  214.248  215.036  216.849  216.352  214.456  214.469  213.725  215.609  213.922  214.727  214.535  214.237  214.515  214.247  215.004  216.266  213.210  214.752  216.775  215.141  214.882  213.559  215.076  213.868  215.940  213.634  215.013  213.735  215.716  226.583  227.878  218.511  247.971  214.071  215.722  214.204  213.152  213.165  212.774  213.095  214.324  212.898  213.524  214.136  214.155  214.710  213.876  213.435  214.401  213.512  214.186  214.036  213.138  214.792  215.055  213.653  213.501  213.119  213.916  214.069  213.891  214.414  213.766  214.290  212.892  214.023  215.577  216.014  214.971  215.709  217.744  223.031  228.535  235.032  246.606  260.597  273.661  276.205  274.277  268.037  264.168  258.019  251.509  246.766  245.566  246.219  248.092  250.535  248.974  243.651  243.144  240.609  240.872  240.874  240.617  242.741  242.321  244.975  253.611  249.400  253.096  253.867  255.207  256.603  255.745  258.692  256.264  255.173  256.565  256.768  253.481  248.047  245.943  238.807  235.557  232.416  229.275  225.957  224.978  225.097  224.782  224.358  225.128  228.760  231.812  231.091  230.542  228.399  225.967  226.181  223.790  222.335  221.111  219.325  218.125  217.112  217.397  215.691  215.623  213.475  214.723  215.285  213.332  215.197  215.584  215.460  213.533  214.618  213.064  212.959  214.601  214.101  212.341  212.676  212.960  212.687  212.915  212.562  212.831  213.303  214.629  211.583  212.468  212.021  213.721  213.796  214.474  213.557  213.623  213.427  214.364  214.531  212.591  213.611  213.819 
DATE 2017:065:01:54:02 obsn   2 az 331 el 17 freq_MHz  1420.4000 Tsys 195.571 Tant 26.136 vlsr   -3.46 glat  0.031 glon 105.118 source G105.0 
Fstart 1419.397 fstop 1421.403 spacing 0.009375 bw    2.400 fbw    2.000 MHz nfreq 256 nsam 5242880 npoint 214 integ     8 sigma    0.730 bsw 0
Spectrum      7 integration periods
 213.718  212.755  211.002  213.831  211.926  212.764  214.336  212.753  212.505  211.234  211.955  212.144  212.480  211.113  211.507  211.421  211.021  211.408  211.325  210.803  212.272  211.826  212.106  211.443  212.969  212.253  213.441  211.640  212.576  212.042  212.787  212.411  211.856  211.976  212.333  212.260  211.530  210.336  211.826  211.499  211.167  211.722  212.459  212.142  210.873  211.469  211.952  212.955  210.864  211.855  212.458  210.730  211.132  211.673  212.784  211.956  213.010  212.549  210.962  213.327  211.177  210.771  212.015  211.638  212.530  211.600  211.887  215.541  223.560  222.433  214.032  235.081  212.496  210.746  210.692  209.845  210.298  211.485  210.767  211.565  211.656  210.148  210.681  210.727  210.823  211.398  210.987  211.607  211.470  211.631  212.041  209.940  210.651  210.297  211.266  211.137  210.404  211.504  210.827  211.782  212.180  212.383  211.990  211.732  212.855  212.236  211.470  214.905  216.018  218.298  223.818  232.603  242.847  256.048  268.932  277.574  276.970  273.501  271.682  262.480  257.783  248.876  242.474  238.027  236.615  238.961  240.628  240.228  237.272  235.941  235.209  234.750  235.848  238.142  241.806  243.605  246.428  253.686  255.589  257.510  260.983  261.837  259.956  257.861  258.324  255.696  257.454  257.992  254.630  249.477  243.968  239.693  233.258  228.113  226.215  223.124  222.565  222.370  221.561  220.700  221.884  223.734  225.677  227.936  229.166  225.664  222.030  221.168  221.267  220.314  218.599  217.169  215.828  217.341  215.825  214.622  214.355  212.370  214.861  212.998  212.120  211.705  211.672  212.207  211.959  210.995  210.213  211.994  212.709  212.080  211.532  210.788  211.621  210.254  211.748  210.637  210.592  210.506  211.642  210.893  210.837  210.892  210.483  211.892  209.899  210.585  212.370  211.966  210.668  211.401  211.609  212.167  212.334  211.001 
DATE 2017:065:01:54:23 obsn   3 az 330 el 19 freq_MHz  1420.4000 Tsys 195.571 Tant 25.178 vlsr   -1.64 glat  0.040 glon 107.618 source G107.5 
Fstart 1419.397 fstop 1421.403 spacing 0.009375 bw    2.400 fbw    2.000 MHz nfreq 256 nsam 5242880 npoint 214 integ     9 sigma    0.683 bsw 0
Spectrum      8 integration periods
 213.161  211.854  209.654  211.460  211.619  210.439  211.532  210.398  211.798  212.161  210.054  210.476  211.004  209.914  209.953  209.251  209.662  209.296  210.514  210.392  210.815  210.739  209.620  211.564  210.335  208.818  209.603  210.800  211.338  210.133  210.286  209.520  210.380  209.398  211.289  211.011  209.493  210.329  209.923  210.738  209.247  210.341  210.635  211.381  209.711  209.439  209.566  209.445  209.700  210.073  209.841  208.963  209.493  211.220  210.866  209.966  210.254  210.700  211.676  210.072  208.826  209.958  210.567  211.238  210.608  209.980  210.186  209.938  219.572  220.772  214.042  236.014  210.784  209.037  209.975  209.135  209.710  209.290  211.248  209.219  208.521  210.723  210.055  210.176  210.037  210.075  209.657  209.069  209.199  210.894  209.442  210.347  210.383  210.707  209.849  210.490  210.133  209.043  209.758  210.515  209.598  209.274  210.662  210.587  211.379  211.467  212.152  214.346  216.701  222.513  229.412  240.954  253.467  263.857  274.033  277.892  278.506  273.868  268.633  262.962  252.428  244.166  235.259  229.929  228.673  228.973  232.011  232.978  233.277  234.665  236.512  236.974  240.471  241.340  245.571  249.680  256.312  262.321  263.531  265.626  264.600  263.133  259.511  256.594  252.595  249.247  247.533  248.111  245.990  242.146  237.030  234.266  228.799  225.106  223.779  222.551  221.575  218.115  218.966  219.143  222.968  224.300  225.366  225.993  225.904  223.776  219.945  218.195  217.205  216.708  216.427  214.733  214.133  215.043  213.431  213.692  213.178  211.942  211.054  212.110  211.567  211.355  213.027  210.317  210.842  212.462  210.851  211.312  211.719  211.392  210.072  211.652  209.433  209.544  209.798  210.843  211.381  210.641  210.269  210.711  209.650  209.989  211.115  212.517  210.860  210.427  211.860  212.629  210.985  210.762  211.695  210.988  211.945  210.265 
DATE 2017:065:01:54:44 obsn   4 az 330 el 22 freq_MHz  1420.4000 Tsys 195.571 Tant 25.476 vlsr    0.18 glat  0.049 glon 110.118 source G110.0 
Fstart 1419.397 fstop 1421.403 spacing 0.009375 bw    2.400 fbw    2.000 MHz nfreq 256 nsam 5242880 npoint 214 integ     9 sigma    0.683 bsw 0
Spectrum      8 integration periods
 211.991  212.509  211.813  210.267  211.520  211.985  212.537  210.605  209.634  210.777  211.069  210.624  209.996  210.155  209.475  210.328  211.722  209.595  209.596  210.445  211.352  210.587  209.607  210.464  211.088  210.866  210.510  211.242  210.521  210.361  211.399  210.323  209.236  211.123  211.140  210.087  210.243  211.368  210.731  210.340  211.119  209.991  209.699  210.244  210.458  210.230  211.229  210.044  210.632  210.434  210.449  211.458  209.225  208.987  212.048  210.198  210.871  210.379  210.252  211.152  211.370  210.251  210.727  211.702  212.527  210.134  210.113  212.120  219.560  219.371  216.667  220.398  211.052  209.856  209.865  209.353  210.073  209.839  210.108  210.358  210.745  210.921  208.602  209.177  209.190  210.217  210.863  210.936  210.896  211.785  209.570  210.769  210.899  209.647  209.179  210.901  210.709  209.669  210.714  209.864  209.718  210.520  212.378  211.795  212.270  212.319  215.628  218.889  223.145  231.413  241.798  252.675  263.316  271.869  272.662  276.101  275.669  275.068  271.356  263.925  254.197  244.715  235.839  232.155  228.178  228.025  228.838  233.616  235.745  236.855  237.816  241.703  245.402  250.011  255.276  260.861  264.143  267.397  268.576  268.140  265.675  262.074  257.082  252.251  247.850  247.770  245.829  243.042  238.933  234.422  232.256  229.369  227.469  225.559  223.730  223.486  220.884  221.545  220.799  224.351  226.227  226.696  227.246  226.966  225.708  223.965  221.911  218.387  217.663  216.222  214.233  213.972  214.432  213.918  212.645  212.435  212.864  212.438  212.951  210.444  212.391  211.681  212.830  212.226  210.545  210.821  212.499  210.887  211.354  210.504  211.401  209.270  209.523  210.574  209.460  209.700  211.301  210.038  210.667  210.527  210.222  209.604  209.870  211.475  212.579  210.836  211.432  210.682  209.900  209.321  210.146  210.313  210.726  211.279 
DATE 2017:065:01:55:05 obsn   5 az 329 el 24 freq_MHz  1420.4000 Tsys 195.571 Tant 25.399 vlsr    2.00 glat  0.058 glon 112.617 source G112.5 
Fstart 1419.397 fstop 1421.403 spacing 0.009375 bw    2.400 fbw    2.000 MHz nfreq 256 nsam 5242880 npoint 214 integ    10 sigma    0.644 bsw 0
Spectrum      9 integration periods
 212.949  212.353  213.135  212.465  212.512  211.507  211.617  212.549  212.586  212.080  211.008  211.040  211.664  211.142  212.063  212.562  211.395  211.282  210.532  211.238  211.366  211.061  209.761  211.470  211.332  210.885  211.893  212.141  210.553  211.962  211.614  211.021  211.481  212.018  210.715  209.651  210.876  211.145  210.908  211.210  211.157  211.240  212.048  212.461  209.782  211.057  211.040  212.113  210.939  210.734  211.190  211.493  210.447  210.422  211.812  211.114  211.569  211.434  211.761  210.794  211.299  210.749  211.272  209.728  211.191  211.150  212.020  214.306  218.008  215.837  212.245  215.326  211.280  209.980  209.843  211.081  211.224  209.890  210.065  210.124  209.010  209.564  210.285  210.082  211.521  211.363  211.033  211.129  211.833  211.999  211.503  211.163  210.496  211.308  211.406  211.060  210.837  211.007  211.125  212.932  211.387  211.165  212.288  212.740  214.238  216.355  216.584  221.653  228.733  237.274  249.488  260.551  269.617  270.590  271.043  271.937  272.007  269.598  266.312  261.533  251.924  243.320  233.803  229.643  227.394  227.860  230.809  234.942  237.974  242.866  247.197  250.342  253.083  258.978  262.136  265.767  267.403  269.887  264.882  261.411  258.949  255.914  251.103  249.676  244.987  241.462  238.262  236.223  231.335  229.954  228.057  225.104  222.845  222.093  221.853  221.510  221.210  222.232  222.331  223.899  224.909  226.626  225.759  224.744  221.922  220.216  219.187  217.412  216.065  213.876  213.886  212.670  213.351  213.373  211.978  213.370  213.282  212.880  212.715  213.200  212.252  211.850  211.427  211.160  211.935  210.251  211.409  210.706  210.215  211.496  211.776  210.751  211.007  210.631  210.227  211.044  210.293  210.770  211.189  211.387  210.588  209.540  210.874  209.508  209.940  210.529  211.217  211.224  211.170  210.918  211.493  210.005  209.932  210.556 
DATE 2017:065:01:55:43 obsn   6 az 328 el 29 freq_MHz  1420.4000 Tsys 195.571 Tant 22.738 vlsr    5.64 glat  0.075 glon 117.617 source G117.5 
Fstart 1419.397 fstop 1421.403 spacing 0.009375 bw    2.400 fbw    2.000 MHz nfreq 256 nsam 5242880 npoint 214 integ     2 sigma    1.367 bsw 0
Spectrum      2 integration periods
 208.654  211.603  212.291  210.383  206.713  209.268  209.991  210.236  209.906  211.826  208.746  209.519  208.888  207.518  207.633  209.689  210.064  208.640  207.631  209.567  208.900  211.158  207.502  207.746  207.188  206.557  210.715  210.765  208.974  206.737  209.923  207.755  208.895  208.863  209.749  210.074  210.841  208.185  208.742  209.921  209.584  210.832  208.811  208.821  210.751  210.122  207.895  209.421  209.330  206.094  209.725  207.687  206.788  208.994  211.547  210.721  206.728  208.911  209.430  208.054  207.194  208.166  206.905  208.844  206.611  207.633  211.034  210.032  222.449  221.894  222.174  212.857  208.965  209.165  207.733  207.616  208.102  209.129  209.465  208.265  207.511  208.676  207.692  208.775  213.108  208.291  207.914  207.413  210.987  207.812  207.800  208.678  207.306  208.474  207.987  207.357  208.899  210.005  207.116  208.743  208.835  208.610  211.903  212.176  215.372  214.244  220.055  230.806  245.197  254.150  258.186  257.714  258.077  260.404  260.024  257.586  254.574  252.400  246.792  241.278  233.346  230.150  228.567  227.922  228.405  233.264  232.822  239.128  242.820  243.172  244.136  247.673  251.747  256.628  259.070  257.737  260.770  259.383  257.881  255.339  255.825  250.697  249.272  241.246  240.630  235.951  227.784  227.273  219.962  218.807  218.105  217.413  218.260  218.579  221.209  219.919  219.236  223.494  223.934  223.467  218.518  220.746  220.909  217.236  215.168  214.881  211.881  211.592  212.151  210.025  208.337  209.226  211.234  211.243  207.517  208.435  209.529  209.127  211.614  208.533  208.135  208.555  209.145  207.329  206.962  209.123  207.397  210.311  208.198  207.545  206.734  207.930  205.713  208.182  207.273  210.366  207.425  209.106  207.544  206.229  206.172  207.021  208.523  209.172  211.045  207.240  211.493  209.222  211.038  207.660  207.672  207.393  208.701  208.226 
DATE 2017:065:01:56:04 obsn   7 az 328 el 31 freq_MHz  1420.4000 Tsys 195.571 Tant 24.055 vlsr    7.44 glat  0.083 glon 120.117 source G120.0 
Fstart 1419.397 fstop 1421.403 spacing 0.009375 bw    2.400 fbw    2.000 MHz nfreq 256 nsam 5242880 npoint 214 integ     3 sigma    1.116 bsw 0
Spectrum      3 integration periods
 209.925  208.003  209.545  209.955  208.614  211.101  210.105  206.972  209.842  209.625  209.014  209.633  208.804  211.255  208.643  211.506  211.217  207.719  207.437  209.004  211.054  210.068  208.958  210.155  209.053  207.980  208.826  207.653  211.035  209.672  212.134  208.797  209.101  208.418  210.186  207.991  209.525  212.779  209.823  208.168  208.946  209.015  209.122  209.520  208.186  207.909  208.735  210.631  208.971  209.092  210.173  210.937  208.504  208.046  209.768  209.574  209.077  209.089  208.673  206.002  208.802  207.740  208.417  207.780  209.890  208.236  209.685  212.413  229.592  234.426  211.985  212.434  207.026  208.635  206.044  208.996  206.650  208.692  208.974  210.295  207.811  209.477  210.128  208.297  210.126  208.714  209.797  207.653  208.702  209.240  208.659  209.252  207.778  211.203  208.280  207.566  211.240  209.177  208.998  208.170  210.262  209.899  210.214  212.603  216.956  220.355  227.030  241.339  251.104  259.464  259.495  260.000  260.758  262.776  262.550  258.959  256.786  252.859  247.071  240.901  232.163  233.648  229.138  232.137  230.800  235.183  238.679  239.050  242.774  244.468  247.441  246.562  252.514  254.985  259.612  261.148  264.084  263.254  261.092  259.460  256.574  256.018  251.105  245.392  243.767  236.745  231.614  224.587  223.664  220.453  221.302  220.494  220.927  220.965  222.856  224.443  222.868  221.376  224.135  221.636  222.009  221.788  220.409  219.500  218.760  216.728  213.087  210.979  212.716  212.126  211.617  209.558  210.168  209.788  209.970  211.238  209.965  209.839  208.982  206.581  210.579  210.517  211.640  209.305  209.414  210.388  208.263  211.903  208.732  208.296  207.745  209.812  209.895  210.858  209.247  209.136  208.255  209.309  208.203  209.339  205.751  208.317  209.789  209.297  209.420  209.848  210.371  209.915  210.279  210.330  209.496  208.189  208.016  208.458 
DATE 2017:065:01:56:25 obsn   8 az 327 el 34 freq_MHz  1420.4000 Tsys 195.571 Tant 21.859 vlsr    9.22 glat  0.091 glon 122.617 source G122.5 
Fstart 1419.397 fstop 1421.403 spacing 0.009375 bw    2.400 fbw    2.000 MHz nfreq 256 nsam 5242880 npoint 214 integ     4 sigma    0.966 bsw 0
Spectrum      4 integration periods
 208.713  208.076  208.084  208.375  207.071  208.104  211.289  208.286  207.386  207.066  207.865  208.172  206.674  205.846  205.677  208.256  208.808  205.678  206.175  208.574  208.686  208.127  208.082  207.965  207.961  206.105  206.335  206.623  206.454  208.011  206.038  208.447  207.254  206.866  208.569  207.765  206.644  206.448  206.160  207.971  207.081  208.178  206.862  207.896  207.213  208.512  206.077  206.554  207.471  208.348  206.582  206.084  206.364  205.855  207.349  206.070  205.911  204.528  208.991  208.418  207.768  209.077  207.602  206.396  206.847  206.604  206.781  211.061  238.993  242.512  209.895  211.528  208.915  206.901  208.124  207.037  206.444  205.585  205.550  206.142  206.191  207.766  207.111  207.418  207.289  207.371  204.978  206.239  207.301  207.534  207.421  206.265  206.508  208.879  207.035  208.277  208.246  208.354  207.284  207.563  208.685  208.595  209.950  211.897  217.420  225.575  236.300  250.393  258.102  259.189  259.573  261.144  263.214  263.482  262.047  254.053  247.931  241.428  236.032  231.585  225.306  224.748  224.073  226.806  228.333  234.133  235.594  237.577  243.637  246.319  246.136  245.051  247.920  251.561  251.581  255.838  257.473  255.648  256.044  253.623  246.876  247.865  244.333  239.435  235.224  229.850  226.563  222.147  224.777  220.130  221.206  222.206  221.228  220.256  219.231  219.537  218.488  221.116  220.705  219.062  219.224  217.542  215.146  214.470  212.219  212.863  212.826  212.156  209.432  208.540  210.723  208.632  208.542  206.991  208.848  207.272  207.296  206.797  207.497  209.241  209.000  208.932  208.790  207.823  208.563  209.042  205.569  205.937  207.250  206.771  207.239  206.625  205.171  206.345  208.231  207.410  208.526  207.115  207.593  207.053  206.500  206.750  208.127  207.634  207.640  210.802  208.578  209.142  208.163  207.277  207.669  207.976  207.598  207.107 
DATE 2017:065:01:56:46 obsn   9 az 327 el 36 freq_MHz  1420.4000 Tsys 195.571 Tant 18.231 vlsr   10.99 glat  0.099 glon 125.117 source G125.0 
Fstart 1419.397 fstop 1421.403 spacing 0.009375 bw    2.400 fbw    2.000 MHz nfreq 256 nsam 5242880 npoint 214 integ     5 sigma    0.864 bsw 0
Spectrum      5 integration periods
 204.870  204.392  205.782  202.406  202.987  204.971  206.132  205.822  206.458  204.864  204.980  202.913  202.309  202.858  204.090  205.216  203.502  205.471  202.726  203.748  204.208  204.141  204.184  202.869  204.466  205.710  204.188  203.811  205.471  204.499  204.521  204.884  205.261  203.258  204.090  204.266  203.784  203.715  204.377  204.591  203.610  205.242  203.776  204.975  202.302  203.008  204.111  205.310  203.495  203.463  204.640  204.946  203.859  202.981  204.380  205.986  203.624  205.702  205.327  202.512  205.268  204.932  203.715  203.732  201.986  202.120  204.888  208.466  234.665  234.273  203.066  208.268  205.373  203.650  203.053  205.470  204.977  203.822  203.436  202.863  201.895  203.635  204.072  204.988  201.904  203.665  204.789  203.988  202.193  204.698  204.321  204.044  206.592  205.251  203.858  204.223  204.959  203.850  203.507  205.422  203.675  207.255  208.739  213.336  222.127  232.555  242.858  251.461  255.391  258.071  257.277  257.014  260.655  260.726  255.786  246.015  237.369  229.178  226.528  221.450  221.117  221.028  222.174  226.904  229.428  231.356  236.169  238.265  244.852  244.261  244.363  245.069  247.333  250.935  251.647  255.823  257.007  255.123  249.035  248.781  243.231  239.316  235.463  232.981  227.618  225.863  222.913  222.332  219.886  218.376  218.382  219.197  220.499  217.247  218.671  220.264  217.222  215.291  215.831  216.214  214.338  214.443  210.839  210.214  208.566  207.947  207.612  206.878  204.841  206.609  206.669  208.137  205.584  203.627  205.180  207.307  205.867  205.570  204.744  206.206  204.107  203.280  203.871  205.393  203.271  205.607  206.177  204.860  204.080  205.357  204.577  203.672  204.831  205.796  206.401  205.353  204.294  203.619  205.503  206.791  204.075  205.932  204.759  204.540  205.661  207.263  205.342  206.138  204.807  205.319  204.767  205.947  205.114  203.764 
DATE 2017:065:01:57:08 obsn  10 az 326 el 39 freq_MHz  1420.4000 Tsys 195.571 Tant 21.103 vlsr   12.74 glat  0.107 glon 127.617 source G127.5 
Fstart 1419.397 fstop 1421.403 spacing 0.009375 bw    2.400 fbw    2.000 MHz nfreq 256 nsam 5242880 npoint 214 integ     7 sigma    0.789 bsw 0
Spectrum      6 integration periods
 209.458  209.015  208.866  209.697  209.496  209.078  209.664  208.585  208.274  208.838  207.058  208.874  209.134  207.515  209.285  207.653  206.719  207.423  207.884  208.888  208.079  209.168  209.153  207.169  208.277  207.755  208.431  208.939  208.991  208.660  207.914  208.028  209.801  208.912  208.113  209.099  205.856  207.339  208.302  208.516  207.487  208.248  207.256  208.206  209.504  206.900  207.512  209.138  209.626  207.114  208.130  206.649  208.184  207.451  206.960  206.922  208.930  209.247  208.367  207.521  207.453  207.612  207.235  208.491  207.282  208.044  208.146  212.202  226.350  229.515  206.998  208.682  208.075  208.293  209.261  208.676  208.545  206.469  205.978  207.713  206.716  208.662  208.146  207.243  207.838  208.720  206.191  207.379  208.762  208.267  208.380  208.360  208.567  207.138  208.712  206.832  208.552  208.628  208.192  209.107  209.540  212.462  218.834  225.386  236.950  247.232  254.555  258.205  260.686  258.738  257.346  257.765  258.703  250.945  247.279  241.160  234.924  229.393  228.186  227.547  228.278  228.194  232.126  236.791  241.288  247.848  249.052  252.702  252.562  256.832  255.684  258.386  259.197  259.164  259.521  257.574  256.360  252.468  246.647  243.246  238.665  232.481  232.080  228.319  225.801  225.758  223.721  223.672  224.695  223.421  223.565  223.117  221.957  222.998  219.544  221.224  220.118  220.123  216.428  213.891  213.124  212.015  211.715  209.465  210.741  210.516  209.197  207.538  208.826  208.632  208.363  208.612  209.154  207.926  207.966  208.521  207.712  207.336  209.243  208.475  209.106  207.224  207.789  208.238  207.038  207.430  207.133  209.059  208.707  208.577  208.220  206.790  208.569  207.605  207.715  207.585  208.939  207.364  207.217  208.191  208.117  208.097  208.633  207.613  207.462  209.691  207.090  207.586  208.230  208.812  208.261  208.782  208.635  208.175 
DATE 2017:065:01:57:29 obsn  11 az 325 el 41 freq_MHz  1420.4000 Tsys 195.571 Tant 12.313 vlsr   14.47 glat  0.114 glon 130.117 source G130.0 
Fstart 1419.397 fstop 1421.403 spacing 0.009375 bw    2.400 fbw    2.000 MHz nfreq 256 nsam 5242880 npoint 214 integ     7 sigma    0.789 bsw 0
Spectrum      6 integration periods
 198.906  198.500  198.543  199.462  198.333  198.841  198.555  198.105  197.183  198.533  197.627  199.423  198.145  200.370  197.783  197.262  198.462  197.179  197.747  197.698  198.094  197.450  197.243  197.482  197.144  197.092  198.150  198.543  198.457  198.244  197.875  197.920  199.210  198.770  196.601  198.273  198.164  197.940  198.043  196.996  197.721  197.250  198.442  197.318  196.767  197.644  198.947  197.710  197.852  199.087  199.617  197.312  196.899  198.488  198.037  197.833  197.128  198.195  198.894  199.546  197.802  197.535  200.423  198.395  198.236  197.136  196.629  202.369  209.446  209.089  200.602  198.549  196.808  197.744  196.579  197.798  198.567  196.469  196.825  197.787  197.754  198.229  197.934  196.004  196.248  196.355  198.436  198.784  198.432  196.785  197.056  197.519  198.784  198.958  197.964  197.372  198.885  198.261  199.250  199.860  202.559  205.352  212.060  221.640  233.825  241.549  244.149  245.210  245.105  246.219  241.293  240.168  237.563  237.574  230.721  225.410  223.659  221.550  220.540  220.375  221.802  221.506  226.750  229.790  236.408  240.282  242.635  247.311  248.488  251.361  249.639  251.080  250.736  251.024  246.429  242.695  236.986  236.448  230.093  225.292  222.186  217.559  216.121  215.248  215.930  215.380  212.024  214.150  212.028  211.299  211.125  208.701  212.557  210.743  208.744  208.878  208.163  206.354  204.612  201.711  202.710  201.997  200.104  199.286  199.222  199.744  199.736  198.115  197.929  200.303  197.945  198.523  198.473  198.692  197.825  198.344  198.709  198.382  198.885  196.492  199.792  198.255  198.910  199.974  200.314  198.649  198.545  197.987  198.861  198.403  198.640  198.532  199.454  198.043  198.028  198.572  198.460  199.338  198.728  199.254  198.050  199.523  199.806  198.509  198.482  200.736  201.014  199.948  200.025  199.742  200.022  198.644  198.748  199.490 
DATE 2017:065:01:57:50 obsn  12 az 324 el 43 freq_MHz  1420.4000 Tsys 195.571 Tant 13.809 vlsr   16.17 glat  0.122 glon 132.617 source G132.5 
Fstart 1419.397 fstop 1421.403 spacing 0.009375 bw    2.400 fbw    2.000 MHz nfreq 256 nsam 5242880 npoint 214 integ     8 sigma    0.730 bsw 0
Spectrum      7 integration periods
 201.182  200.352  201.819  201.567  200.890  200.881  200.737  201.504  200.619  200.943  200.261  200.472  200.082  200.540  200.578  199.994  200.910  199.198  200.053  198.843  200.569  200.034  198.979  200.245  201.457  200.710  201.385  201.262  200.258  199.966  199.556  199.495  201.028  199.071  199.828  200.485  200.289  200.323  199.937  201.144  199.624  200.937  199.314  199.042  201.024  200.518  198.761  199.559  199.783  199.939  200.173  199.769  199.557  199.914  201.024  200.010  199.828  200.799  201.233  200.570  199.674  200.564  200.193  200.535  201.238  200.305  201.000  205.453  209.295  208.140  201.622  202.802  200.405  198.102  199.193  198.250  199.135  198.283  198.017  198.412  198.820  199.891  200.043  198.258  200.662  199.896  200.929  200.052  200.273  200.208  201.072  200.471  200.780  200.217  200.909  200.502  201.718  201.484  202.077  202.442  207.972  212.049  221.796  233.219  242.975  246.593  251.065  250.964  249.604  247.258  243.112  240.026  237.496  234.314  231.622  227.913  224.810  223.715  223.404  225.600  229.065  232.054  234.718  240.931  245.405  247.719  252.289  253.823  255.620  253.931  253.620  254.743  252.760  249.521  246.053  240.387  233.704  230.545  223.188  219.080  219.095  217.343  216.582  216.226  214.460  215.870  213.465  211.994  211.460  210.511  209.846  211.605  211.048  211.113  209.740  209.162  208.114  205.579  204.776  202.614  202.630  201.375  201.364  200.711  200.891  200.285  198.706  199.371  200.431  199.236  199.440  202.009  200.321  199.524  200.124  199.744  201.590  200.366  200.231  200.692  199.515  200.522  200.142  201.368  200.280  201.747  200.613  201.291  200.316  201.624  198.473  198.250  199.596  199.190  199.258  200.602  200.716  200.440  199.775  200.353  200.605  200.072  199.976  200.472  202.295  202.528  201.878  202.546  199.280  200.770  200.486  200.626  200.720  201.052 
DATE 2017:065:01:58:11 obsn  13 az 323 el 46 freq_MHz  1420.4000 Tsys 195.571 Tant 30.847 vlsr   17.83 glat  0.129 glon 135.117 source G135.0 
Fstart 1419.397 fstop 1421.403 spacing 0.009375 bw    2.400 fbw    2.000 MHz nfreq 256 nsam 5242880 npoint 214 integ     9 sigma    0.683 bsw 0
Spectrum      8 integration periods
 218.528  217.739  217.215  217.835  216.504  217.042  217.179  218.401  218.183  217.186  218.009  218.465  217.337  217.708  217.094  216.977  218.010  216.748  216.591  216.548  216.517  216.539  217.462  217.833  216.963  217.711  217.204  216.667  217.022  216.811  218.380  216.649  216.874  216.862  217.887  216.969  217.321  217.933  217.428  216.331  217.231  216.076  216.725  216.706  215.786  216.864  217.079  216.542  216.598  215.841  216.096  215.853  215.021  215.863  217.058  215.594  215.718  216.481  217.892  216.956  216.537  215.426  217.089  216.625  216.688  216.402  214.302  222.127  222.236  219.328  214.742  219.564  217.737  216.414  214.880  214.772  216.240  216.106  216.206  217.432  216.029  216.546  216.050  215.011  214.997  216.964  216.452  215.526  215.148  216.922  216.540  215.135  214.312  216.176  215.873  217.340  218.316  218.067  220.415  223.593  232.349  243.432  255.590  266.718  271.304  273.854  275.525  271.616  269.036  266.964  263.451  258.880  253.683  251.010  247.058  246.098  245.658  246.653  249.710  252.862  258.960  266.596  268.715  271.725  272.352  273.993  274.707  274.348  272.120  269.205  265.406  262.747  257.375  252.310  249.159  241.495  239.822  236.813  234.040  234.026  232.563  235.082  232.762  230.761  230.613  227.490  227.635  226.066  224.522  225.807  226.201  224.829  223.230  223.397  221.726  221.811  218.981  216.043  214.684  215.341  215.432  214.524  214.823  213.133  213.820  215.261  214.034  214.812  213.618  213.606  213.301  214.395  212.586  215.390  215.120  214.308  213.972  213.863  212.838  214.602  213.856  213.084  214.746  215.877  214.490  215.545  215.072  213.861  215.296  213.361  214.070  214.637  215.115  213.362  214.569  213.653  213.896  213.278  213.553  213.328  215.282  214.286  213.554  214.592  212.699  217.026  215.455  213.992  214.092  214.595  214.642  215.325  213.606  214.372 
DATE 2017:065:01:58:32 obsn  14 az 323 el 48 freq_MHz  1420.4000 Tsys 195.571 Tant 25.481 vlsr   19.46 glat  0.136 glon 137.617 source G137.5 
Fstart 1419.397 fstop 1421.403 spacing 0.009375 bw    2.400 fbw    2.000 MHz nfreq 256 nsam 5242880 npoint 214 integ     9 sigma    0.683 bsw 0
Spectrum      8 integration periods
 214.757  215.232  214.181  215.264  214.325  214.825  214.987  214.379  214.884  213.130  213.998  213.990  213.593  215.162  215.430  213.587  215.012  212.695  213.075  214.702  214.792  214.967  213.039  214.457  212.481  213.926  214.293  214.039  215.110  214.200  213.861  213.916  213.415  214.585  212.873  213.806  214.068  213.038  214.003  214.219  213.626  213.091  213.779  212.472  213.068  214.615  213.859  212.553  213.220  213.042  212.546  211.902  214.271  214.998  213.800  212.637  213.826  213.665  213.864  213.387  212.362  212.863  212.824  214.338  213.127  212.663  211.764  216.605  217.067  214.188  212.821  217.085  214.336  213.433  213.395  213.727  212.646  212.572  211.657  213.385  213.365  213.188  212.220  212.607  214.098  212.938  213.739  214.003  213.583  214.372  213.543  214.784  212.970  212.961  213.489  215.129  214.133  214.592  219.978  224.598  236.229  249.202  259.838  268.644  268.568  270.616  269.760  267.437  267.617  266.177  260.220  256.199  251.619  246.409  243.988  243.290  242.792  247.748  250.695  256.646  264.055  269.646  272.624  273.855  272.025  271.389  269.451  266.593  264.482  260.213  255.563  251.876  245.157  243.657  238.744  235.355  233.050  232.508  230.481  231.243  231.818  232.135  230.443  229.403  226.627  226.039  224.195  223.258  223.502  221.801  221.008  221.108  218.049  216.423  216.770  214.756  215.089  212.818  212.366  212.040  212.028  212.197  211.388  211.968  212.083  212.960  211.994  210.940  210.623  212.077  211.147  212.659  212.729  212.754  214.039  211.735  211.508  211.295  212.603  211.092  211.534  211.256  211.993  210.933  212.117  210.979  212.031  211.355  211.920  212.181  211.473  211.917  211.233  212.159  212.129  211.921  211.405  211.596  210.528  211.588  211.133  211.492  211.643  212.725  212.948  213.128  213.166  212.771  213.572  211.381  212.692  210.589  211.160  211.297 
DATE 2017:065:01:59:10 obsn  15 az 320 el 53 freq_MHz  1420.4000 Tsys 195.571 Tant 32.063 vlsr   22.62 glat  0.149 glon 142.617 source G142.5 
Fstart 1419.397 fstop 1421.403 spacing 0.009375 bw    2.400 fbw    2.000 MHz nfreq 256 nsam 5242880 npoint 214 integ     7 sigma    0.789 bsw 0
Spectrum      6 integration periods
 211.963  211.178  212.608  211.815  211.288  211.417  212.347  212.389  213.334  213.506  212.138  210.576  211.686  210.500  210.610  212.277  211.353  211.203  210.950  210.535  211.857  212.007  211.317  210.977  211.355  210.678  210.503  211.909  213.762  212.658  211.084  211.583  210.962  212.175  211.953  212.411  210.282  212.503  213.034  212.461  212.506  211.786  212.052  212.509  211.234  213.775  213.225  212.287  212.206  209.377  211.685  212.276  212.186  213.561  212.556  213.325  213.014  212.093  213.090  212.141  212.300  210.357  212.074  212.339  212.392  213.216  211.883  212.258  218.468  216.878  206.013  212.119  212.751  209.760  211.090  211.537  211.208  209.601  210.560  211.660  211.369  210.199  208.934  211.660  211.509  208.503  212.402  210.133  211.397  210.933  212.209  210.964  214.524  214.538  213.875  214.285  219.040  223.777  234.689  248.871  258.409  264.661  268.507  264.150  263.986  265.799  267.358  271.597  270.510  268.369  259.283  254.857  250.050  249.464  254.838  259.875  266.283  271.712  277.694  277.310  278.734  277.503  277.107  270.597  268.150  260.259  252.409  247.365  241.750  241.909  238.100  232.253  232.297  227.212  225.421  224.497  225.823  226.531  225.945  227.863  225.073  224.480  222.268  220.735  218.005  216.958  217.072  217.585  216.040  213.270  213.935  213.068  214.092  212.735  211.567  211.710  211.546  211.522  211.023  210.941  212.077  211.342  210.013  210.658  209.535  208.803  210.219  209.491  211.034  209.767  210.621  208.998  210.118  211.369  211.225  210.501  209.969  210.560  209.459  210.197  210.667  212.061  210.298  211.704  210.824  209.930  211.329  207.558  210.379  209.073  210.832  210.538  210.441  210.479  209.945  210.914  210.670  212.231  211.643  210.546  210.224  211.658  211.652  214.112  212.696  228.125  223.425  211.670  212.948  212.581  211.556  212.248  211.960  212.183 
DATE 2017:065:01:59:31 obsn  16 az 319 el 55 freq_MHz  1420.4000 Tsys 195.571 Tant 32.593 vlsr   24.13 glat  0.155 glon 145.117 source G145.0 
Fstart 1419.397 fstop 1421.403 spacing 0.009375 bw    2.400 fbw    2.000 MHz nfreq 256 nsam 5242880 npoint 214 integ     7 sigma    0.789 bsw 0
Spectrum      6 integration periods
 216.909  217.670  218.860  218.355  216.482  218.366  216.744  218.293  218.643  217.547  217.351  216.120  217.048  217.236  217.150  218.070  217.050  218.793  216.942  218.083  218.514  217.386  218.281  219.408  218.116  220.176  218.038  218.977  217.211  218.530  217.232  218.990  217.589  218.329  217.493  217.225  217.336  216.700  217.933  216.625  215.788  217.887  217.328  218.353  217.473  216.628  216.578  217.175  216.132  218.025  218.387  216.979  217.490  216.458  216.895  216.821  216.142  217.866  217.134  216.475  216.834  217.120  216.886  217.373  216.469  215.514  218.414  216.849  230.771  228.733  217.123  219.492  218.519  215.385  215.559  216.836  216.196  216.756  216.925  216.050  214.159  216.008  216.496  216.521  216.512  217.354  217.246  218.160  217.382  216.183  216.695  216.871  219.583  218.243  221.416  223.718  227.855  238.125  251.002  264.037  271.637  274.595  274.062  271.844  267.546  270.568  274.827  275.566  272.366  265.095  259.603  257.822  257.767  263.252  269.208  276.584  282.689  285.790  289.213  288.442  282.592  280.790  273.498  266.959  261.772  256.932  252.448  248.548  247.093  247.563  241.447  238.523  235.622  233.175  232.563  231.452  232.317  231.712  231.983  230.578  228.072  228.699  223.009  223.578  221.209  221.355  219.296  219.026  218.602  218.475  216.648  218.408  217.280  217.496  216.265  215.328  214.637  215.305  216.322  216.338  214.786  214.780  214.940  212.988  215.212  215.176  214.741  215.701  216.263  213.944  215.204  214.744  214.284  214.056  214.236  214.089  215.287  216.286  214.451  214.256  215.297  215.660  216.879  216.639  215.969  216.300  215.281  215.396  216.713  217.556  216.015  216.555  214.419  217.163  217.018  215.393  216.040  216.446  217.203  214.837  213.823  215.800  216.277  216.695  217.899  233.619  230.159  218.139  216.581  217.433  217.052  216.949  217.505  215.965 
DATE 2017:065:02:00:08 obsn  17 az 316 el 60 freq_MHz  1420.4000 Tsys 195.571 Tant 28.362 vlsr   27.01 glat  0.166 glon 150.117 source G150.0 
Fstart 1419.397 fstop 1421.403 spacing 0.009375 bw    2.400 fbw    2.000 MHz nfreq 256 nsam 5242880 npoint 214 integ     4 sigma    0.966 bsw 0
Spectrum      4 integration periods
 214.938  213.531  213.391  215.819  212.984  215.079  214.794  214.947  214.548  214.969  213.412  213.774  213.868  213.741  216.131  213.778  212.524  213.837  210.898  214.092  214.613  214.710  215.046  213.241  214.356  214.059  214.535  214.230  214.125  213.887  214.867  215.215  214.167  213.229  215.241  213.320  212.506  213.312  214.296  213.558  214.236  215.603  213.744  214.115  212.574  214.495  211.251  211.854  215.425  211.923  212.207  213.088  212.699  212.348  214.965  212.869  212.828  213.015  214.349  213.226  215.574  214.891  214.096  215.952  213.796  213.995  214.060  211.988  223.572  221.811  218.724  219.597  213.501  213.629  213.712  213.817  212.055  212.346  213.596  212.220  213.386  214.458  212.179  212.270  213.469  212.742  213.836  213.651  214.223  213.836  213.178  215.954  217.842  216.959  220.153  229.473  238.316  248.753  259.964  261.777  270.761  276.480  277.213  272.090  271.154  267.229  266.767  265.816  261.767  262.727  263.978  264.939  271.973  277.181  280.231  286.942  286.727  281.290  278.857  270.297  263.388  262.185  257.696  255.680  249.576  246.681  246.108  241.995  241.003  235.087  231.674  228.040  223.582  223.424  222.253  219.812  221.103  217.058  216.077  216.972  216.160  214.258  213.427  213.128  213.942  213.460  213.793  211.076  213.091  211.751  213.344  212.686  209.929  210.331  210.157  213.299  212.097  211.149  211.238  211.926  212.794  211.648  212.298  212.601  212.189  212.478  210.719  210.820  210.939  209.856  210.730  212.321  210.819  211.534  212.744  213.040  211.483  211.926  212.566  212.292  212.896  212.288  211.413  213.098  212.742  212.261  211.036  212.381  212.316  213.171  212.871  213.167  212.521  211.992  213.878  211.807  214.533  212.625  212.148  213.247  211.909  210.623  213.346  213.008  211.133  214.965  211.543  212.760  211.801  210.418  211.330  211.114  211.605  211.348 
DATE 2017:065:02:00:29 obsn  18 az 314 el 62 freq_MHz  1420.4000 Tsys 195.571 Tant 30.555 vlsr   28.38 glat  0.171 glon 152.617 source G152.5 
Fstart 1419.397 fstop 1421.403 spacing 0.009375 bw    2.400 fbw    2.000 MHz nfreq 256 nsam 5242880 npoint 214 integ     5 sigma    0.864 bsw 0
Spectrum      5 integration periods
 216.374  218.176  218.898  218.622  218.211  218.137  218.842  218.237  219.094  218.602  216.512  218.018  217.452  218.192  217.364  219.168  217.114  215.728  219.576  217.716  218.649  217.943  216.883  218.039  218.527  220.155  217.948  219.163  217.922  216.913  219.642  218.330  218.269  217.374  218.371  217.933  217.384  218.437  217.998  215.542  219.184  218.592  218.003  218.864  218.256  219.039  216.002  217.951  218.454  218.603  216.884  217.602  216.110  218.007  220.004  218.192  216.571  217.052  218.606  216.857  215.528  216.814  215.796  221.942  218.089  218.817  216.416  219.405  227.463  225.705  224.512  224.754  217.839  215.324  217.139  217.081  216.314  214.837  216.176  217.787  216.910  215.739  216.883  217.046  218.882  217.337  217.956  217.740  219.127  218.836  222.539  220.101  221.412  226.136  232.068  241.334  250.262  258.968  266.351  272.332  277.678  282.853  284.771  278.848  276.305  278.314  274.938  275.900  274.704  276.778  275.800  281.624  283.511  288.489  291.130  289.239  287.083  283.523  275.462  268.985  263.522  260.175  257.535  252.474  248.182  242.548  237.609  233.543  232.203  231.470  228.322  227.475  225.710  222.998  224.334  224.052  222.337  218.931  220.549  219.234  219.757  220.128  218.707  217.651  219.241  217.226  217.772  218.587  216.939  218.691  217.823  220.607  217.395  215.413  215.352  218.744  216.399  215.879  215.644  215.389  215.284  215.598  215.856  214.383  213.670  215.758  215.390  215.471  215.713  215.614  215.224  215.055  216.553  216.059  217.569  214.025  217.579  217.782  215.685  216.397  215.512  216.456  216.417  216.558  215.083  215.287  215.839  215.204  214.653  215.399  216.790  215.809  216.521  216.992  216.081  216.540  216.679  215.262  215.077  215.884  214.582  215.483  215.976  216.728  216.175  222.651  221.024  217.391  215.346  215.895  216.004  217.631  214.971  216.065 
DATE 2017:065:02:00:50 obsn  19 az 312 el 64 freq_MHz  1420.4000 Tsys 195.571 Tant 30.078 vlsr   29.69 glat  0.176 glon 155.117 source G155.0 
Fstart 1419.397 fstop 1421.403 spacing 0.009375 bw    2.400 fbw    2.000 MHz nfreq 256 nsam 5242880 npoint 214 integ     5 sigma    0.864 bsw 0
Spectrum      5 integration periods
 216.651  216.739  218.978  218.542  217.254  215.544  216.899  216.743  215.696  216.259  216.923  215.259  216.334  215.398  215.779  215.327  216.418  216.622  214.627  215.252  217.061  215.495  217.116  216.722  214.791  215.749  217.184  215.773  216.358  216.246  216.131  216.096  215.686  214.852  215.412  215.194  216.262  216.425  216.295  216.739  215.242  217.107  215.882  214.402  215.118  216.092  214.923  216.927  216.204  216.743  215.739  215.500  215.806  215.863  219.747  217.399  216.732  217.102  217.513  215.808  216.217  215.933  215.815  219.305  215.157  215.137  215.014  216.574  228.879  231.610  217.165  217.418  216.683  215.550  215.366  214.160  216.414  215.933  216.144  215.562  215.230  214.279  217.779  214.797  216.682  214.127  217.121  216.066  217.627  218.581  219.215  220.718  223.319  228.109  237.363  247.314  255.231  263.263  270.915  276.415  280.044  280.767  276.589  274.756  273.036  273.658  276.090  276.162  274.730  276.627  279.632  280.623  282.637  286.945  287.041  280.457  276.124  271.181  264.267  258.339  254.477  247.983  248.129  242.599  237.284  233.400  228.665  225.865  226.026  225.978  223.925  223.411  222.302  222.294  221.494  219.285  218.373  217.513  217.107  219.089  217.349  216.158  216.188  213.689  215.885  216.464  215.004  216.016  215.026  214.627  214.416  215.642  216.000  214.708  213.992  215.546  214.770  216.146  216.845  212.897  215.740  215.945  215.945  214.727  215.722  214.806  214.256  215.044  214.855  213.972  212.873  214.710  215.395  215.717  214.320  214.055  216.304  217.090  213.997  214.221  216.311  216.940  213.488  213.872  215.085  214.728  214.877  210.440  214.403  215.829  214.366  214.036  215.532  213.659  215.782  213.210  213.763  213.683  212.825  212.283  213.449  214.828  212.910  215.322  212.955  222.436  219.907  215.469  215.017  214.201  214.578  213.705  215.970  215.755 
DATE 2017:065:02:01:28 obsn  20 az 306 el 69 freq_MHz  1420.4000 Tsys 195.571 Tant 33.984 vlsr   32.14 glat  0.185 glon 160.117 source G160.0 
Fstart 1419.397 fstop 1421.403 spacing 0.009375 bw    2.400 fbw    2.000 MHz nfreq 256 nsam 5242880 npoint 214 integ     3 sigma    1.116 bsw 0
Spectrum      3 integration periods
 224.017  221.002  220.504  221.612  223.161  220.791  223.091  222.807  220.921  220.160  221.903  220.626  222.318  224.014  219.587  220.393  223.489  221.050  221.504  220.995  220.515  219.504  221.060  221.215  221.783  221.565  221.490  219.262  220.674  221.917  222.730  223.554  220.900  218.423  220.153  222.453  222.350  222.919  219.773  220.757  219.596  218.128  218.598  219.774  219.318  221.003  220.709  220.543  220.989  223.703  218.937  218.959  220.023  219.613  221.285  219.508  222.123  220.940  224.800  218.584  221.085  221.954  221.463  222.556  221.395  220.415  220.606  224.579  231.161  231.023  229.682  222.792  220.115  222.609  220.727  218.594  219.691  218.772  219.949  218.987  217.636  218.504  218.674  220.087  219.033  220.451  221.274  221.073  220.396  224.136  224.086  231.375  240.733  252.882  259.878  262.874  267.884  274.609  278.595  278.358  277.402  277.895  276.492  279.788  284.512  282.206  284.863  279.693  279.339  281.533  278.798  277.650  275.976  271.081  265.796  260.777  257.598  249.020  245.304  243.268  236.594  235.958  232.086  230.953  230.664  227.921  228.223  225.001  224.564  225.328  224.364  223.549  222.776  221.951  223.852  221.732  223.238  222.183  219.893  223.191  221.663  222.297  221.708  220.791  219.780  218.528  220.016  222.278  219.213  219.141  221.266  221.233  218.491  220.002  219.737  216.842  216.454  215.972  219.267  215.442  221.520  219.434  218.826  218.981  221.125  218.449  218.284  219.736  221.238  218.488  219.008  218.334  219.266  219.022  217.319  221.106  221.035  221.343  219.507  218.618  218.579  217.769  218.080  219.582  220.878  220.334  220.773  220.036  219.211  219.652  219.832  219.720  218.242  219.612  218.700  221.613  220.095  220.797  220.565  218.341  218.789  218.720  220.829  219.145  221.421  220.004  220.260  218.829  220.162  219.908  219.224  218.982  220.584  219.456 
DATE 2017:065:02:01:49 obsn  21 az 302 el 71 freq_MHz  1420.4000 Tsys 195.571 Tant 37.792 vlsr   33.28 glat  0.188 glon 162.617 source G162.5 
Fstart 1419.397 fstop 1421.403 spacing 0.009375 bw    2.400 fbw    2.000 MHz nfreq 256 nsam 5242880 npoint 214 integ     4 sigma    0.966 bsw 0
Spectrum      4 integration periods
 227.019  226.583  223.642  226.167  226.729  226.141  226.110  229.029  226.965  226.270  223.917  225.565  224.290  224.329  226.406  224.029  223.064  224.102  224.344  223.288  225.113  224.907  225.419  225.884  226.694  226.354  224.410  225.535  226.895  225.611  223.724  224.418  227.318  224.093  225.752  224.465  225.308  224.833  224.939  224.762  223.671  226.971  224.915  223.124  224.950  223.691  225.939  225.013  225.914  223.904  223.932  225.560  225.101  224.901  223.505  223.209  224.077  225.433  224.284  225.318  224.146  224.139  223.740  226.352  223.388  223.780  222.810  227.561  237.904  241.434  224.914  224.634  223.571  223.310  223.227  223.187  221.029  223.385  224.356  222.134  224.689  223.072  223.565  224.286  225.703  222.628  225.951  226.198  228.408  230.576  234.157  241.531  252.110  262.060  265.403  268.767  275.805  279.228  284.793  286.674  287.016  285.874  288.709  286.765  288.249  287.590  287.878  283.916  279.782  277.658  277.272  272.318  271.039  266.763  261.058  257.153  253.562  244.564  243.569  238.987  235.777  232.777  231.570  228.761  229.639  229.149  226.316  228.220  227.080  226.241  225.650  226.628  224.854  226.617  223.467  224.718  224.214  225.908  223.397  224.391  223.966  222.024  223.255  223.453  224.036  221.541  224.896  222.627  224.105  222.249  223.868  221.481  223.856  222.907  222.824  223.550  222.338  222.608  223.117  223.232  223.101  223.291  221.581  220.806  222.715  221.726  221.892  221.788  222.602  222.521  221.801  219.846  221.348  223.916  223.008  221.586  223.179  221.774  221.605  220.879  221.696  222.249  222.928  221.640  221.270  222.422  222.829  222.887  221.711  221.769  221.808  223.489  220.867  223.489  222.851  222.348  223.244  220.974  222.025  221.816  222.668  222.541  224.265  222.485  222.697  227.094  225.025  224.876  222.407  221.071  222.332  224.072  222.003  222.044 
DATE 2017:065:02:02:10 obsn  22 az 297 el 73 freq_MHz  1420.4000 Tsys 195.571 Tant 35.214 vlsr   34.35 glat  0.192 glon 165.117 source G165.0 
Fstart 1419.397 fstop 1421.403 spacing 0.009375 bw    2.400 fbw    2.000 MHz nfreq 256 nsam 5242880 npoint 214 integ     4 sigma    0.966 bsw 0
Spectrum      4 integration periods
 226.778  224.456  224.392  225.352  226.118  225.998  226.999  226.687  226.620  224.862  223.822  225.202  224.900  223.804  225.204  225.803  225.214  226.327  225.042  225.442  225.339  226.906  224.487  222.642  224.243  222.862  225.729  223.335  228.427  225.848  224.162  223.110  225.212  223.256  224.668  225.300  225.474  223.487  225.314  225.318  221.032  224.260  223.846  223.020  223.287  222.513  224.104  223.099  224.240  224.316  223.963  223.981  225.883  223.753  225.151  224.848  223.532  222.996  226.485  223.770  223.698  223.986  223.936  225.461  222.301  222.811  223.377  225.818  226.612  226.712  224.454  226.882  224.264  224.925  223.066  221.887  221.950  222.320  223.469  224.026  220.679  222.582  222.446  222.146  221.458  223.817  226.901  226.525  229.969  231.550  239.790  247.679  260.286  268.039  275.697  278.572  286.030  286.505  291.190  296.342  295.003  293.895  294.861  292.893  291.636  289.604  285.185  282.697  279.658  275.284  270.986  267.329  259.295  252.969  247.206  243.292  239.020  235.520  232.956  231.854  231.469  229.154  227.489  227.120  226.270  226.419  225.611  224.869  225.122  223.469  224.168  222.614  224.707  224.539  225.383  220.849  225.684  223.541  220.811  223.156  222.268  223.121  221.984  222.688  223.029  223.246  221.756  221.515  219.605  220.567  221.696  222.383  220.625  221.556  221.570  222.088  221.836  220.681  223.043  221.986  222.284  218.641  220.505  220.419  219.008  220.472  221.061  219.162  221.034  221.488  221.998  220.123  220.406  221.164  219.175  221.220  220.393  221.429  222.710  221.574  221.387  219.865  221.823  221.703  220.893  220.244  219.880  221.061  220.697  220.998  220.779  221.593  220.784  221.967  221.900  219.582  220.257  220.729  223.622  222.089  220.620  218.918  221.292  221.532  220.001  224.584  224.264  221.811  221.758  223.652  221.472  222.994  221.431  221.378 
DATE 2017:065:02:02:31 obsn  23 az 291 el 74 freq_MHz  1420.4000 Tsys 195.571 Tant 38.626 vlsr   35.36 glat  0.195 glon 167.617 source G167.5 
Fstart 1419.397 fstop 1421.403 spacing 0.009375 bw    2.400 fbw    2.000 MHz nfreq 256 nsam 5242880 npoint 214 integ     5 sigma    0.864 bsw 0
Spectrum      5 integration periods
 227.355  225.790  226.521  227.081  227.532  227.898  228.829  228.929  227.171  228.197  227.985  226.871  226.316  227.611  226.200  226.762  226.149  226.433  226.216  225.908  227.043  226.609  228.456  227.772  227.111  228.500  227.431  226.871  226.737  226.074  227.556  227.129  227.263  226.707  226.417  227.231  225.041  227.592  226.238  227.114  224.215  226.207  226.100  225.173  225.304  225.238  227.024  225.462  224.458  224.813  227.344  224.783  224.705  224.633  226.703  227.647  225.769  227.463  228.879  224.322  225.257  225.145  225.525  228.263  225.771  225.580  225.549  228.955  242.534  240.784  232.264  226.756  225.409  225.521  224.466  225.076  224.934  224.097  223.160  225.301  225.104  224.571  222.574  224.353  224.979  227.023  228.806  231.023  233.296  238.365  248.786  261.970  274.450  281.327  287.451  292.862  296.702  298.977  303.210  303.834  305.242  305.180  301.978  296.841  297.503  289.016  286.193  282.618  277.963  275.940  268.175  260.578  252.488  248.331  242.134  238.767  236.491  236.388  230.508  231.107  229.970  230.785  227.535  227.143  228.107  226.034  225.598  225.915  226.048  226.824  227.129  224.496  224.531  223.599  226.085  225.714  225.439  223.914  223.477  223.924  223.447  226.761  223.362  224.351  224.641  224.010  223.741  223.957  223.912  224.281  223.211  223.432  223.863  223.412  223.088  223.082  223.337  222.652  222.800  223.589  223.287  222.517  224.042  221.750  222.768  223.888  222.663  223.540  222.668  223.034  221.765  222.115  222.898  223.372  221.664  223.123  221.265  223.086  223.838  224.028  223.425  223.687  223.295  225.029  223.843  222.535  222.442  222.661  223.944  222.084  223.799  223.533  224.032  224.318  222.222  221.950  222.527  223.152  223.317  222.122  222.862  223.226  222.198  222.171  223.031  224.911  225.686  224.538  221.771  223.910  223.397  224.057  223.354  222.645 
DATE 2017:065:02:02:55 obsn  24 az 284 el 76 freq_MHz  1420.4000 Tsys 195.571 Tant 37.774 vlsr   36.30 glat  0.198 glon 170.117 source G170.0 
Fstart 1419.397 fstop 1421.403 spacing 0.009375 bw    2.400 fbw    2.000 MHz nfreq 256 nsam 5242880 npoint 214 integ     7 sigma    0.789 bsw 0
Spectrum      6 integration periods
 227.481  228.526  227.322  229.822  227.946  226.792  228.431  229.015  226.783  225.323  226.123  227.151  226.408  227.077  225.014  226.184  226.776  225.303  227.019  226.332  225.035  226.264  226.284  227.287  226.590  227.486  227.256  224.969  227.437  227.432  226.585  223.264  227.118  226.706  226.757  225.814  225.145  226.445  226.740  226.410  224.952  226.508  226.806  225.264  225.050  224.322  226.076  228.039  225.852  225.201  225.951  223.943  226.832  224.390  224.952  227.796  226.611  225.745  227.594  225.604  224.380  226.089  226.914  231.547  226.301  225.429  225.088  228.486  233.714  231.631  229.296  227.051  226.842  224.589  224.086  225.592  225.450  224.804  225.472  225.762  224.048  224.103  224.770  226.055  226.947  226.739  229.272  231.531  236.362  244.238  257.113  273.045  283.927  292.057  297.309  302.806  306.611  311.931  314.534  315.335  313.823  310.091  305.624  298.939  296.954  290.125  283.020  273.971  266.382  262.383  254.340  248.486  242.380  236.274  236.285  234.281  231.460  230.697  230.626  227.897  227.791  226.540  227.285  223.539  225.614  225.069  225.965  225.706  227.058  224.467  226.351  224.330  222.864  223.869  225.218  222.959  222.768  225.800  222.857  222.755  223.405  224.196  223.657  222.939  226.711  224.426  224.756  225.992  224.521  222.798  222.843  225.342  223.661  221.411  222.590  222.794  223.107  223.066  223.517  222.960  221.933  221.885  221.152  220.343  221.929  222.577  222.981  223.619  223.181  223.151  222.406  221.690  224.236  221.555  223.107  221.536  223.287  221.981  224.589  225.143  223.223  224.448  224.484  223.493  222.682  223.762  223.368  222.355  223.919  222.423  223.312  223.473  223.852  222.118  222.859  223.057  223.869  221.335  221.611  223.664  222.900  222.346  224.145  222.369  223.342  225.123  221.219  224.351  222.182  222.890  222.645  222.888  222.894  222.771 
DATE 2017:065:02:03:19 obsn  25 az 275 el 77 freq_MHz  1420.4000 Tsys 195.571 Tant 38.963 vlsr   37.17 glat  0.200 glon 172.617 source G172.5 
Fstart 1419.397 fstop 1421.403 spacing 0.009375 bw    2.400 fbw    2.000 MHz nfreq 256 nsam 5242880 npoint 214 integ     5 sigma    0.864 bsw 0
Spectrum      5 integration periods
 228.916  226.349  226.762  226.542  229.264  226.740  227.085  227.877  228.099  228.091  227.557  228.340  225.682  227.944  226.849  228.281  226.577  226.181  227.833  227.292  226.347  227.304  227.127  226.871  228.544  225.900  226.970  228.538  227.634  227.697  227.344  227.125  225.150  225.875  228.569  226.817  226.692  227.209  223.824  226.545  226.903  227.909  227.493  226.803  224.877  226.712  225.872  225.140  225.845  226.185  227.186  226.569  226.155  227.534  225.053  226.338  227.735  227.457  228.148  224.696  226.934  226.217  226.613  227.903  225.762  224.666  226.494  228.466  233.281  227.892  227.336  228.680  227.893  223.870  225.788  225.704  224.944  225.396  226.482  226.036  226.393  226.544  227.241  227.190  228.430  228.776  231.956  237.544  241.965  255.103  271.023  285.902  297.738  304.602  309.502  314.157  316.645  317.753  317.649  318.454  313.809  311.579  303.998  297.832  289.568  280.224  271.344  262.723  256.512  249.497  243.775  239.051  237.103  232.165  233.636  228.952  229.581  229.463  230.386  226.885  226.394  228.487  225.718  227.669  226.968  225.568  225.228  226.299  223.919  224.942  224.170  224.547  226.186  224.333  225.074  224.612  224.880  229.988  224.500  224.648  225.185  225.436  224.200  225.283  225.332  223.654  225.634  222.773  224.456  223.093  223.140  225.871  223.568  222.450  224.444  223.441  223.108  224.645  224.404  224.871  223.607  222.087  223.710  223.027  224.706  223.179  222.373  222.883  223.207  224.138  221.823  222.541  222.282  222.676  222.097  221.802  224.206  224.141  223.714  224.734  224.512  225.106  225.261  222.744  224.032  225.132  223.526  223.922  221.821  222.319  222.016  222.305  223.735  223.647  222.655  222.896  223.224  224.759  220.939  222.327  223.843  222.559  222.811  223.285  224.018  225.686  226.125  224.613  221.778  225.211  224.831  223.054  223.316  225.324 
DATE 2017:065:02:03:46 obsn  26 az 264 el 78 freq_MHz  1420.4000 Tsys 195.571 Tant 42.012 vlsr   37.97 glat  0.202 glon 175.117 source G175.0 
Fstart 1419.397 fstop 1421.403 spacing 0.009375 bw    2.400 fbw    2.000 MHz nfreq 256 nsam 5242880 npoint 214 integ     5 sigma    0.864 bsw 0
Spectrum      5 integration periods
 229.735  227.307  227.977  229.275  230.809  230.569  229.909  230.365  229.282  229.659  229.095  228.298  226.648  226.983  228.636  227.604  228.117  228.126  227.645  227.275  228.386  227.671  229.630  229.450  228.603  227.961  228.868  229.410  229.098  228.820  228.633  230.199  228.711  230.275  229.926  228.399  228.286  228.332  228.005  229.160  228.408  228.154  228.051  229.100  228.305  229.541  228.513  229.333  227.311  227.639  228.150  229.670  228.537  225.916  228.331  229.114  227.571  228.753  232.138  228.986  229.503  226.152  227.737  229.973  228.282  227.492  229.965  227.859  233.494  231.152  230.809  229.473  229.113  227.009  226.627  229.529  226.869  227.889  227.654  228.736  225.376  227.663  229.026  230.119  229.590  232.220  238.716  244.747  255.654  273.353  287.152  301.104  309.921  319.495  322.992  322.358  322.161  318.129  313.203  308.454  305.985  304.468  299.693  290.954  281.645  270.527  257.979  252.133  247.108  243.927  237.469  234.835  233.777  233.207  230.483  229.712  230.806  231.540  229.335  227.721  226.377  227.781  226.838  227.331  225.195  227.009  227.367  227.753  224.976  228.013  227.083  226.611  227.456  225.671  227.601  226.675  226.205  231.364  226.524  226.270  225.276  226.488  228.227  226.261  226.060  225.273  225.341  226.039  226.075  227.013  225.869  226.863  228.076  227.438  224.833  225.968  225.227  226.677  227.799  227.514  224.433  225.563  224.105  225.174  225.653  224.566  225.723  224.235  224.267  225.337  223.994  226.105  224.325  224.561  225.788  224.786  226.418  225.252  225.870  227.079  225.054  227.720  226.244  223.464  223.223  226.434  224.642  223.715  223.652  224.145  225.844  223.651  224.081  225.957  224.542  224.651  223.776  225.496  226.777  225.312  226.145  224.225  223.935  225.237  225.796  227.243  226.681  226.190  224.019  224.138  226.710  225.123  224.641  226.630 
DATE 2017:065:02:04:13 obsn  27 az 252 el 79 freq_MHz  1420.4000 Tsys 195.571 Tant 39.448 vlsr   38.70 glat  0.203 glon 177.617 source G177.5 
Fstart 1419.397 fstop 1421.403 spacing 0.009375 bw    2.400 fbw    2.000 MHz nfreq 256 nsam 5242880 npoint 214 integ     5 sigma    0.864 bsw 0
Spectrum      5 integration periods
 229.066  229.212  227.394  229.503  229.478  226.789  229.199  230.639  228.561  228.001  228.089  228.834  227.277  227.058  228.343  227.503  227.064  226.754  226.470  227.763  228.585  227.030  226.855  228.251  227.365  226.549  228.833  227.796  229.485  227.928  227.864  228.381  226.311  226.629  228.026  228.223  227.166  227.637  227.509  225.823  227.358  227.410  226.933  225.532  226.739  228.052  227.704  228.666  228.570  226.874  227.540  228.773  228.073  227.321  228.147  226.268  226.361  227.828  231.469  228.857  227.340  229.146  227.576  228.797  226.255  227.428  226.635  228.751  237.540  238.419  231.915  230.428  229.035  228.646  226.292  228.028  226.437  224.610  226.644  226.303  228.320  227.065  228.344  230.684  232.155  237.595  244.147  255.756  271.713  288.990  304.229  311.721  320.166  325.807  326.623  327.519  322.476  313.275  308.372  299.858  295.321  291.493  284.369  274.572  263.349  254.802  246.234  240.785  237.144  234.361  232.992  231.920  231.098  228.762  228.070  227.048  227.136  228.464  229.228  227.987  226.657  227.616  224.986  228.029  227.390  225.925  227.300  226.466  227.408  226.932  228.167  226.175  225.792  225.082  225.441  225.585  225.879  230.862  225.292  225.710  226.648  226.552  226.220  226.189  227.825  226.531  224.551  225.363  226.559  226.095  225.646  226.684  226.623  224.719  225.250  222.988  226.907  223.921  225.432  225.527  225.522  225.392  224.801  224.447  225.340  224.906  225.517  224.958  225.454  227.980  226.308  226.825  226.100  226.442  225.521  226.079  224.308  225.410  226.280  224.337  224.103  225.022  225.220  226.107  223.976  225.832  223.583  225.987  225.203  226.833  226.781  223.528  224.555  224.184  224.071  223.573  224.896  224.473  225.055  223.115  225.472  224.781  225.101  224.281  226.221  225.617  227.081  223.993  223.483  224.848  224.898  223.618  225.130  226.973 
DATE 2017:065:02:04:40 obsn  28 az 239 el 79 freq_MHz  1420.4000 Tsys 195.571 Tant 46.905 vlsr   39.35 glat  0.205 glon 180.117 source G180.0 
Fstart 1419.397 fstop 1421.403 spacing 0.009375 bw    2.400 fbw    2.000 MHz nfreq 256 nsam 5242880 npoint 214 integ     4 sigma    0.966 bsw 0
Spectrum      4 integration periods
 230.326  232.013  232.069  232.367  234.721  232.548  232.253  232.120  232.245  229.808  232.602  231.037  232.809  231.572  232.078  231.790  229.739  230.341  231.585  230.911  232.603  231.001  231.321  231.602  228.438  230.019  229.135  233.522  232.321  230.037  231.849  230.384  232.224  232.075  228.393  229.665  228.486  230.620  230.886  229.770  231.844  230.281  228.999  228.058  230.600  229.150  229.538  229.308  229.671  231.012  232.516  231.407  229.758  230.362  229.633  230.630  230.966  229.277  231.431  231.175  228.600  231.428  233.617  233.932  229.745  229.894  231.139  231.547  241.690  239.201  231.231  231.033  231.215  229.530  228.151  231.550  230.222  227.747  228.711  230.474  233.462  232.948  232.719  234.743  241.878  249.060  257.082  274.296  294.352  315.251  323.452  328.216  334.580  336.528  333.578  329.238  318.485  310.598  302.277  292.696  282.429  276.309  267.517  259.917  252.495  247.105  241.947  236.420  236.087  233.463  235.959  229.468  231.185  230.618  229.587  229.673  228.851  229.803  232.093  226.805  229.735  227.936  228.202  228.121  228.429  228.581  229.862  229.791  229.883  229.049  228.974  228.231  229.466  229.565  229.325  228.919  228.730  229.135  227.830  228.032  228.977  227.949  228.526  226.017  228.874  227.543  229.449  229.549  228.660  228.619  228.440  229.440  228.373  227.981  228.064  225.516  227.849  226.019  227.233  227.585  227.109  228.070  227.288  225.104  227.527  227.305  227.485  227.186  226.841  225.033  226.437  224.908  226.687  227.424  228.761  226.192  227.167  226.214  226.863  227.538  228.211  226.763  227.648  228.300  225.838  229.719  227.218  227.283  226.659  227.670  226.005  228.738  229.438  228.129  227.720  225.510  226.735  226.501  226.537  226.610  225.988  225.053  227.263  228.812  224.831  226.716  228.339  228.009  226.871  225.338  228.087  225.547  225.514  226.923 
DATE 2017:065:02:05:07 obsn  29 az 227 el 78 freq_MHz  1420.4000 Tsys 195.571 Tant 37.683 vlsr   39.93 glat  0.205 glon 182.617 source G182.5 
Fstart 1419.397 fstop 1421.403 spacing 0.009375 bw    2.400 fbw    2.000 MHz nfreq 256 nsam 5242880 npoint 214 integ     4 sigma    0.966 bsw 0
Spectrum      4 integration periods
 231.067  228.797  226.726  227.980  230.417  228.928  230.236  229.530  227.326  226.144  227.294  227.051  227.432  228.693  227.793  227.738  229.003  227.179  229.010  227.758  228.886  227.672  229.384  227.600  230.077  228.356  229.289  227.299  226.991  230.104  227.786  228.622  226.795  228.816  229.028  227.557  226.321  228.917  227.309  228.010  227.203  228.851  228.188  227.183  229.442  227.274  226.374  227.529  229.561  226.620  228.372  226.107  228.815  227.441  228.477  226.556  228.687  227.956  228.825  227.852  226.097  228.001  226.352  228.757  226.375  228.612  228.713  229.387  235.274  232.010  228.104  227.168  228.944  227.501  227.021  227.629  227.923  228.138  228.772  229.335  230.064  232.267  235.991  239.961  247.491  258.608  274.625  293.855  311.617  329.534  337.065  334.942  339.011  333.749  326.744  313.351  300.024  290.111  279.213  269.353  262.068  252.286  248.085  240.815  238.925  236.567  234.353  233.292  231.347  230.084  228.796  227.812  227.756  224.630  227.720  225.789  226.558  227.350  224.469  228.153  225.284  226.356  227.465  225.480  228.203  225.947  227.619  225.260  225.610  225.312  227.148  226.357  222.873  227.202  226.273  224.532  226.194  225.218  223.970  226.705  223.198  224.079  226.014  225.530  226.598  225.679  223.722  225.017  224.497  226.247  223.476  227.627  223.966  224.238  223.725  223.892  225.133  224.215  225.517  224.412  224.458  223.402  224.305  224.365  223.907  225.824  224.960  225.823  225.303  222.879  224.830  225.226  222.688  223.163  224.189  224.381  224.162  226.836  224.608  225.598  225.993  224.498  225.425  224.285  224.493  226.331  225.723  223.846  223.599  225.079  222.435  223.626  224.310  222.325  222.525  224.351  223.314  222.738  225.012  225.391  225.738  223.461  225.397  224.083  225.123  226.664  225.336  222.667  222.798  224.527  224.229  222.955  225.302  225.505 
DATE 2017:065:02:05:31 obsn  30 az 217 el 77 freq_MHz  1420.4000 Tsys 195.571 Tant 38.064 vlsr   40.43 glat  0.206 glon 185.117 source G185.0 
Fstart 1419.397 fstop 1421.403 spacing 0.009375 bw    2.400 fbw    2.000 MHz nfreq 256 nsam 5242880 npoint 214 integ     4 sigma    0.966 bsw 0
Spectrum      4 integration periods
 229.286  224.670  227.666  226.985  226.978  226.089  229.907  227.614  228.814  227.634  226.581  227.512  227.254  228.514  226.532  227.581  228.450  228.744  225.970  228.842  224.900  226.884  226.813  226.798  224.913  226.755  226.793  226.032  227.087  227.970  228.085  225.960  227.052  228.678  226.865  226.309  225.862  229.162  227.829  227.651  225.813  226.896  228.272  226.217  226.259  227.275  222.756  225.272  227.068  228.001  227.598  226.609  225.194  227.154  226.692  227.077  228.963  225.891  229.803  225.384  226.611  227.048  226.357  228.545  225.873  226.247  227.306  228.624  233.956  231.875  239.368  228.244  227.458  226.394  225.762  227.406  228.301  228.415  228.608  229.528  235.017  238.994  242.564  249.141  260.525  275.772  293.069  312.697  330.545  339.743  339.519  340.675  335.889  328.484  313.352  294.625  281.855  267.775  256.978  250.116  243.710  239.931  236.032  233.828  234.473  232.476  231.455  229.023  229.476  228.839  227.838  227.984  225.654  224.674  225.687  225.687  223.814  224.242  227.885  226.800  227.074  226.385  224.358  227.220  225.359  226.757  225.721  225.491  224.507  227.086  228.205  227.704  224.006  225.349  226.577  227.333  225.466  224.460  224.561  225.694  223.408  226.402  224.694  223.561  224.390  220.842  223.032  225.003  226.089  222.774  223.784  225.987  225.483  221.556  226.081  225.944  222.104  224.283  222.741  224.914  223.332  222.614  224.868  221.682  223.356  223.368  224.054  222.101  223.089  225.269  224.227  222.521  223.090  224.087  224.611  223.463  223.608  224.507  224.443  224.001  224.194  222.744  224.863  221.835  223.278  222.556  223.831  224.926  222.950  224.103  222.208  223.095  221.784  223.919  224.211  222.419  223.212  222.019  224.190  223.895  222.322  223.215  223.318  222.795  222.649  224.461  225.769  223.660  222.967  224.650  222.557  222.705  223.034  224.144 
DATE 2017:065:02:05:55 obsn  31 az 208 el 76 freq_MHz  1420.4000 Tsys 195.571 Tant 36.373 vlsr   40.86 glat  0.206 glon 187.618 source G187.5 
Fstart 1419.397 fstop 1421.403 spacing 0.009375 bw    2.400 fbw    2.000 MHz nfreq 256 nsam 5242880 npoint 214 integ     4 sigma    0.966 bsw 0
Spectrum      4 integration periods
 228.892  229.963  229.596  229.527  229.508  229.630  227.161  229.985  228.486  229.818  228.961  228.741  229.451  228.073  228.892  227.547  228.290  227.520  229.347  229.839  229.995  227.501  229.847  228.445  225.571  228.171  227.853  227.162  229.449  229.106  229.245  229.321  229.155  228.159  226.778  229.188  229.726  229.958  229.274  227.950  229.154  228.898  229.241  229.808  228.121  227.485  228.061  229.032  226.992  228.023  225.616  228.544  228.324  226.996  230.230  228.149  228.575  227.982  231.365  226.873  226.829  228.951  227.405  230.862  229.212  227.971  228.195  230.029  235.331  232.113  234.392  237.604  226.119  230.112  228.343  230.682  229.001  231.655  233.710  234.068  241.414  248.286  256.568  268.173  282.190  295.688  314.339  326.186  340.338  344.347  344.004  340.483  337.135  318.341  302.287  282.281  270.955  258.874  248.581  240.914  239.182  236.536  232.985  230.650  229.784  234.067  229.960  229.737  231.882  230.466  227.599  227.916  227.692  228.041  228.519  229.742  226.413  227.240  229.549  227.356  228.335  228.570  228.243  226.452  227.937  226.438  228.568  227.630  224.422  226.200  228.089  224.061  224.036  225.759  226.697  226.094  227.321  228.519  226.788  228.431  226.947  224.255  227.336  225.130  226.353  225.769  225.734  225.960  225.031  226.632  223.773  227.145  226.992  226.420  226.456  224.007  225.458  225.891  226.200  225.033  227.552  227.017  225.930  224.908  225.265  225.383  224.999  224.737  223.862  225.617  225.448  225.802  226.144  227.628  225.542  225.700  224.432  225.444  226.186  225.159  225.159  225.502  226.184  228.064  224.871  226.167  225.945  225.952  226.052  224.790  224.965  223.019  224.557  224.925  225.313  222.371  225.860  225.084  225.065  223.490  223.963  226.535  224.972  223.935  223.752  226.188  226.155  225.212  226.008  224.291  224.650  226.229  223.467  224.843 
DATE 2017:065:02:06:18 obsn  32 az 201 el 74 freq_MHz  1420.4000 Tsys 195.571 Tant 35.468 vlsr   41.21 glat  0.205 glon 190.118 source G190.0 
Fstart 1419.397 fstop 1421.403 spacing 0.009375 bw    2.400 fbw    2.000 MHz nfreq 256 nsam 5242880 npoint 214 integ     3 sigma    1.116 bsw 0
Spectrum      3 integration periods
 224.377  226.345  226.160  226.995  225.001  227.183  224.733  226.960  222.402  225.148  226.880  225.080  224.555  225.014  224.742  225.343  222.604  225.476  225.176  224.512  223.868  222.986  225.518  224.004  225.404  226.906  227.375  224.328  227.043  225.057  222.616  224.637  225.356  224.601  225.271  223.742  223.289  227.084  223.783  226.327  225.732  225.221  225.783  224.803  223.373  224.454  224.963  223.646  225.085  224.252  225.366  223.315  225.281  225.309  225.423  224.148  224.220  224.186  223.035  223.566  225.187  225.621  225.013  227.384  225.005  225.243  223.873  226.624  231.667  226.098  221.860  233.075  226.828  226.557  227.325  229.764  230.588  232.115  236.305  241.993  253.896  263.614  274.144  286.932  303.520  314.895  321.845  332.790  339.272  340.331  335.921  329.609  321.522  303.472  285.903  269.515  256.641  247.150  238.355  234.131  230.805  229.475  228.842  227.186  226.679  224.261  225.182  222.487  225.157  227.144  222.768  224.186  225.725  223.542  224.001  221.658  224.329  223.465  224.949  222.694  220.477  222.153  223.279  223.874  225.325  223.786  223.349  224.027  225.370  221.582  223.934  224.656  224.287  223.773  223.925  221.908  222.611  223.934  220.394  223.630  219.704  223.526  222.547  222.039  221.826  220.522  220.655  221.911  221.918  224.416  222.307  221.328  222.866  223.159  222.898  222.801  223.615  223.400  223.039  221.979  223.060  221.666  222.681  222.925  221.756  224.162  220.979  221.428  223.027  222.038  220.484  222.980  220.992  224.076  221.728  221.315  220.703  221.518  222.242  221.060  223.221  221.092  222.724  222.439  222.345  222.932  222.751  220.380  220.684  220.389  221.781  218.932  221.743  222.368  222.085  219.935  219.474  219.167  223.616  221.246  222.191  222.328  221.771  221.956  222.213  221.029  223.377  222.064  221.001  222.591  223.653  224.073  220.395  220.767 
DATE 2017:065:02:06:40 obsn  33 az 195 el 72 freq_MHz  1420.4000 Tsys 195.571 Tant 35.196 vlsr   41.48 glat  0.205 glon 192.618 source G192.5 
Fstart 1419.397 fstop 1421.403 spacing 0.009375 bw    2.400 fbw    2.000 MHz nfreq 256 nsam 5242880 npoint 214 integ     3 sigma    1.116 bsw 0
Spectrum      3 integration periods
 224.214  224.694  224.785  226.324  226.841  224.890  224.617  226.154  224.815  227.872  224.688  225.576  224.785  226.566  224.682  225.572  223.498  222.627  222.418  224.220  225.361  224.509  225.290  224.400  225.592  222.518  224.411  224.987  225.748  222.560  227.026  224.665  223.227  222.751  223.557  223.485  222.367  224.955  225.327  226.187  224.007  226.331  225.918  224.904  223.721  223.802  223.691  221.991  223.641  223.259  223.322  222.718  224.085  223.206  225.998  224.175  225.578  223.868  225.958  223.833  223.932  224.937  225.151  226.525  230.590  224.552  225.194  224.978  226.864  224.051  226.604  227.528  230.372  230.273  231.257  236.859  241.780  247.741  253.909  267.017  274.537  288.881  298.433  306.898  315.835  322.229  331.413  334.470  336.691  330.516  320.127  310.751  294.276  279.627  266.699  252.621  243.651  235.449  230.773  229.600  226.201  225.979  225.917  225.222  222.555  225.339  222.154  221.441  220.475  222.126  221.137  221.952  223.858  223.453  224.401  223.442  221.910  221.568  222.869  224.170  223.082  224.303  219.914  222.163  223.395  221.842  220.316  220.255  222.364  224.722  222.443  221.325  221.291  222.422  221.306  221.030  221.115  222.270  221.314  223.332  221.880  221.487  221.278  221.497  219.904  221.986  220.088  221.306  218.735  224.026  221.287  220.003  220.593  219.016  222.099  222.049  219.041  219.426  221.164  222.455  221.167  219.103  220.105  221.773  219.633  220.073  219.984  219.620  217.904  220.519  221.146  218.910  216.421  220.455  219.281  220.783  219.471  219.109  221.017  222.043  221.092  221.527  220.370  221.822  220.312  220.633  221.496  223.422  218.902  218.840  220.986  221.265  218.903  219.626  218.788  219.480  219.581  219.730  220.808  216.811  217.671  217.695  220.586  221.620  222.129  222.128  220.225  220.861  222.139  221.411  218.949  217.495  220.105  218.321 
DATE 2017:065:02:07:01 obsn  34 az 190 el 70 freq_MHz  1420.4000 Tsys 195.571 Tant 36.589 vlsr   41.67 glat  0.203 glon 195.118 source G195.0 
Fstart 1419.397 fstop 1421.403 spacing 0.009375 bw    2.400 fbw    2.000 MHz nfreq 256 nsam 5242880 npoint 214 integ     4 sigma    0.966 bsw 0
Spectrum      4 integration periods
 222.322  224.638  223.838  227.889  224.514  224.569  223.367  227.313  225.002  224.206  225.803  224.080  224.231  224.687  223.984  224.897  225.025  223.527  222.009  224.152  223.851  223.677  224.884  223.696  223.856  223.876  223.289  223.320  228.382  222.823  221.130  223.635  223.383  223.810  223.451  224.477  225.557  224.929  223.420  224.366  223.303  226.965  221.772  225.230  224.320  224.099  222.943  223.196  222.951  224.778  227.510  224.471  222.425  222.941  226.455  225.654  221.281  224.584  223.887  223.151  224.223  223.250  228.773  222.839  224.078  223.744  226.315  228.365  230.268  231.157  236.126  232.629  231.437  234.629  238.878  249.080  255.734  264.404  271.362  283.101  289.803  298.804  301.657  305.844  312.700  314.687  320.595  323.926  323.063  316.114  304.221  293.864  277.988  263.243  251.793  242.233  240.844  233.157  229.207  227.480  227.961  225.364  222.420  222.772  225.457  225.561  223.016  223.810  223.416  222.754  222.217  221.723  221.626  219.806  222.725  222.602  222.056  222.404  225.450  223.647  221.789  221.933  222.654  221.043  221.717  222.700  220.399  221.787  222.494  223.811  223.498  219.874  221.332  222.070  220.029  220.800  222.825  221.597  223.464  223.395  220.337  220.573  221.760  222.268  220.447  220.016  221.346  222.856  220.351  221.590  222.740  222.138  223.420  219.625  222.021  216.945  220.034  220.799  218.658  218.774  220.449  219.633  220.385  219.287  220.464  221.303  219.076  218.273  219.966  219.034  219.371  219.335  221.202  223.099  219.502  220.797  220.847  219.846  218.829  220.498  219.127  220.119  223.186  221.446  219.223  219.901  221.501  221.912  219.706  220.269  221.186  221.052  219.845  219.247  223.316  218.578  220.087  218.746  216.701  219.585  219.862  219.428  218.559  222.832  217.731  220.002  221.945  220.356  220.308  221.611  219.889  221.841  219.219  219.458 
DATE 2017:065:02:07:30 obsn  35 az 187 el 68 freq_MHz  1420.4000 Tsys 195.571 Tant 39.491 vlsr   41.78 glat  0.202 glon 197.618 source G197.5 
Fstart 1419.397 fstop 1421.403 spacing 0.009375 bw    2.400 fbw    2.000 MHz nfreq 256 nsam 5242880 npoint 214 integ     4 sigma    0.966 bsw 0
Spectrum      4 integration periods
 225.033  228.269  228.715  229.696  230.247  227.192  229.505  230.067  228.798  227.367  227.213  226.736  225.617  228.598  227.882  231.414  228.168  225.385  227.977  227.789  228.125  227.633  227.105  227.453  228.635  227.586  227.482  226.660  229.301  225.403  228.570  225.651  227.035  228.250  227.552  226.961  228.294  228.901  226.673  224.806  227.407  229.713  227.545  227.540  227.296  226.128  225.374  226.759  230.167  225.373  229.973  226.670  226.003  225.831  230.153  225.028  229.096  224.843  226.512  226.825  224.552  225.778  230.899  228.762  226.611  227.380  228.466  230.497  235.884  234.732  239.293  240.794  244.137  246.866  254.627  265.983  269.740  275.188  284.210  295.248  299.752  303.967  305.748  303.160  305.196  311.810  316.635  313.333  315.889  307.559  294.532  285.244  272.287  257.236  248.688  241.388  238.801  231.394  233.108  228.993  229.747  228.572  227.988  228.117  226.967  226.654  224.377  226.563  224.661  228.741  225.349  225.903  223.433  222.957  225.142  227.201  224.893  224.398  228.207  223.978  223.518  225.511  223.129  225.737  222.340  222.452  225.180  225.655  224.330  226.199  225.857  224.501  225.080  223.723  222.633  224.631  225.202  224.150  225.778  226.696  223.495  223.011  226.504  226.196  224.886  225.124  225.340  227.599  224.444  223.512  223.719  226.530  225.625  224.041  223.615  222.241  222.571  223.084  221.182  222.842  226.329  224.156  221.702  220.928  223.466  225.229  222.467  224.314  223.718  223.904  220.962  222.434  221.864  225.098  223.281  222.892  222.055  225.034  224.076  222.840  222.098  223.114  224.913  224.563  222.491  223.953  225.301  218.823  225.432  223.558  223.318  221.857  223.120  222.955  225.651  221.732  222.954  223.751  221.802  222.697  221.738  222.336  220.716  222.738  222.289  224.587  223.903  224.118  220.391  223.539  221.469  223.479  221.716  220.877 
DATE 2017:065:02:07:51 obsn  36 az 183 el 66 freq_MHz  1420.4000 Tsys 195.571 Tant 31.002 vlsr   41.81 glat  0.200 glon 200.118 source G200.0 
Fstart 1419.397 fstop 1421.403 spacing 0.009375 bw    2.400 fbw    2.000 MHz nfreq 256 nsam 5242880 npoint 214 integ     5 sigma    0.864 bsw 0
Spectrum      5 integration periods
 222.734  222.446  222.262  223.436  220.562  221.910  222.171  224.520  222.016  220.951  221.075  220.969  221.557  219.712  222.202  220.646  222.829  222.677  220.781  221.582  222.353  218.789  222.083  223.138  220.908  221.902  222.521  221.005  223.160  222.744  220.743  221.654  221.373  220.509  221.612  220.470  220.562  219.929  219.650  220.518  219.552  222.891  222.517  221.692  221.984  222.552  221.059  222.949  220.335  222.422  222.615  220.781  222.167  219.206  222.686  222.455  223.036  221.818  222.128  221.646  222.222  221.928  223.346  226.812  222.735  221.726  226.639  226.879  234.142  235.694  238.786  247.114  251.375  257.340  265.794  270.176  276.102  280.911  285.279  291.084  292.022  291.071  292.456  287.923  288.843  292.039  298.612  301.277  298.956  288.476  275.879  264.833  252.631  241.323  237.242  230.320  228.279  228.500  224.518  223.901  224.030  221.800  218.317  219.288  220.401  221.946  220.225  219.684  219.502  220.832  220.791  220.339  220.383  218.620  220.627  219.332  218.870  221.134  221.638  221.329  219.829  220.460  220.695  219.039  219.112  218.501  220.965  220.561  220.569  220.436  219.661  217.485  219.983  220.394  219.862  218.231  219.897  220.052  218.636  220.297  219.500  218.540  218.759  218.725  218.736  217.223  218.226  219.843  219.563  217.792  216.829  219.098  218.700  217.751  217.439  217.557  217.648  216.846  216.282  219.137  219.496  218.272  219.658  217.902  219.284  219.595  217.509  216.742  218.594  218.465  217.906  218.946  216.270  216.355  217.490  217.632  218.343  219.289  218.835  218.008  217.735  218.648  218.888  217.623  218.467  218.330  218.121  216.518  218.891  217.307  217.427  217.286  217.228  218.586  219.200  216.141  216.456  216.710  216.671  218.185  219.782  216.442  216.573  220.120  216.135  219.449  218.219  216.750  217.257  215.377  217.637  217.803  216.196  217.469 
DATE 2017:065:02:08:12 obsn  37 az 181 el 64 freq_MHz  1420.4000 Tsys 195.571 Tant 32.246 vlsr   41.76 glat  0.197 glon 202.618 source G202.5 
Fstart 1419.397 fstop 1421.403 spacing 0.009375 bw    2.400 fbw    2.000 MHz nfreq 256 nsam 5242880 npoint 214 integ     7 sigma    0.789 bsw 0
Spectrum      6 integration periods
 218.482  221.741  217.946  219.524  216.744  219.910  219.391  220.299  219.100  218.889  217.748  218.917  218.599  217.831  217.756  218.518  217.383  217.672  217.555  217.917  218.427  218.658  219.097  218.498  217.154  218.105  218.491  218.392  218.411  219.084  218.139  219.126  218.797  217.289  220.264  218.791  218.010  217.891  217.419  217.086  216.786  217.886  217.309  218.115  217.663  218.151  217.618  218.703  217.425  219.502  219.329  218.185  219.450  219.751  220.518  219.143  219.107  218.461  219.909  218.810  218.350  219.015  221.933  225.370  222.452  222.908  226.644  232.659  240.627  240.749  253.545  255.694  259.677  264.890  269.370  275.887  275.653  278.720  280.482  280.286  281.392  284.162  280.169  280.720  279.634  282.964  291.502  294.030  292.003  278.951  267.288  254.973  243.728  233.928  229.865  226.409  226.299  220.860  221.058  219.903  218.187  218.529  217.359  218.683  216.872  217.165  217.164  218.698  217.978  217.547  216.836  219.025  216.839  217.112  217.401  217.476  216.944  218.622  218.371  218.102  216.719  216.217  217.246  218.583  218.202  218.464  218.065  216.622  217.439  218.111  218.495  216.367  217.681  217.709  217.465  217.195  219.649  217.670  217.445  216.390  216.651  216.505  217.664  217.432  217.400  216.085  216.907  217.007  216.637  216.670  216.950  215.332  216.201  215.580  215.502  219.265  215.989  216.610  216.523  217.096  217.828  217.209  217.297  217.547  218.300  215.620  215.244  216.036  217.437  216.648  216.865  216.308  213.912  215.781  215.955  215.611  216.256  215.321  215.913  216.206  216.776  215.290  217.728  216.915  216.013  215.881  215.563  214.227  215.693  217.625  216.048  216.890  217.120  216.764  215.814  216.057  215.395  216.035  215.614  215.532  215.758  214.430  217.181  215.910  214.852  216.684  216.422  216.011  216.945  214.967  216.692  216.529  214.973  215.878 
DATE 2017:065:02:08:34 obsn  38 az 178 el 62 freq_MHz  1420.4000 Tsys 195.571 Tant 21.544 vlsr   41.64 glat  0.195 glon 205.118 source G205.0 
Fstart 1419.397 fstop 1421.403 spacing 0.009375 bw    2.400 fbw    2.000 MHz nfreq 256 nsam 5242880 npoint 214 integ     7 sigma    0.789 bsw 0
Spectrum      6 integration periods
 212.190  211.419  210.827  211.611  211.350  211.433  209.533  211.357  211.098  211.493  210.490  210.091  210.177  210.012  209.693  210.927  209.819  209.948  210.223  209.179  209.923  210.900  210.062  210.244  210.644  210.582  209.999  210.662  210.397  210.106  210.441  209.193  211.871  210.576  209.209  210.784  210.178  212.890  212.344  210.656  207.944  211.097  210.229  209.253  209.596  208.990  211.393  210.476  210.643  209.603  209.611  211.214  209.971  209.545  210.252  210.416  213.290  210.433  212.619  211.176  213.191  212.642  214.369  217.993  218.260  222.745  228.231  233.896  243.352  247.747  254.907  263.197  266.411  265.240  268.295  265.892  263.279  263.940  266.884  263.947  267.067  269.240  271.260  270.022  269.148  276.223  283.550  283.184  278.802  269.144  255.123  242.057  231.854  224.367  219.661  216.907  216.181  212.542  212.639  211.567  210.001  210.297  209.639  210.526  210.887  209.053  210.497  211.157  208.391  209.617  209.357  208.382  210.642  209.623  209.268  211.573  209.454  210.382  211.536  210.387  210.213  211.663  209.830  209.925  210.038  210.301  210.747  211.161  210.023  210.899  210.421  211.983  212.187  210.422  210.922  209.495  212.017  210.415  209.942  210.643  209.143  209.810  209.362  210.555  209.699  208.477  209.540  210.684  209.573  210.291  209.267  209.223  211.048  210.841  208.215  207.948  210.787  210.418  208.826  208.921  211.112  209.242  210.555  210.039  212.185  211.358  210.870  211.477  211.101  212.733  210.439  211.176  210.583  213.393  210.722  210.885  209.174  210.681  211.103  210.710  211.074  209.910  210.967  209.953  209.281  210.868  210.771  209.448  209.874  210.921  210.485  211.010  208.724  209.652  210.149  210.192  209.446  209.690  210.328  211.420  210.943  210.734  212.389  212.736  210.446  210.553  210.481  211.651  212.541  211.998  211.333  210.871  211.123  209.850 
DATE 2017:065:02:08:55 obsn  39 az 176 el 60 freq_MHz  1420.4000 Tsys 195.571 Tant 23.346 vlsr   41.43 glat  0.192 glon 207.618 source G207.5 
Fstart 1419.397 fstop 1421.403 spacing 0.009375 bw    2.400 fbw    2.000 MHz nfreq 256 nsam 5242880 npoint 214 integ     8 sigma    0.730 bsw 0
Spectrum      7 integration periods
 212.249  211.350  211.587  210.183  210.075  210.209  211.668  211.185  210.650  211.194  210.751  211.254  209.072  210.701  211.428  210.722  209.556  210.103  212.005  209.510  210.395  210.485  210.654  210.601  211.078  209.801  209.855  210.442  211.376  210.820  210.924  209.624  210.136  211.119  210.030  211.215  210.862  210.870  209.312  210.418  209.816  210.441  210.438  210.110  209.982  210.676  208.497  208.813  211.759  210.950  211.488  209.413  209.381  210.244  212.001  211.698  211.640  213.764  213.758  212.757  213.132  215.029  218.345  223.020  223.665  229.971  237.754  247.481  258.910  260.502  277.055  275.304  273.031  266.937  265.155  259.445  256.591  257.775  260.171  262.837  266.496  269.210  265.494  268.492  273.189  279.746  287.135  283.706  277.183  268.093  252.919  240.557  228.794  221.290  216.891  215.242  214.186  212.092  211.641  211.105  210.617  209.140  209.708  209.844  210.198  209.150  207.424  208.418  209.510  210.073  209.926  209.023  208.409  210.266  209.980  210.038  208.878  209.246  210.497  208.310  209.508  209.745  208.536  209.458  210.271  209.121  208.956  209.400  210.217  209.267  211.267  208.937  209.391  209.831  208.564  208.749  209.352  210.536  210.045  209.248  209.698  209.400  208.900  209.621  208.126  207.634  210.465  208.082  208.960  209.648  209.540  209.935  208.953  209.398  209.512  209.714  209.638  207.912  208.636  208.819  209.930  207.779  207.532  208.155  207.995  208.918  208.903  208.655  209.562  208.560  210.010  209.921  208.514  208.992  209.950  209.832  209.452  210.462  208.462  208.803  210.146  208.539  210.103  210.573  209.567  209.923  209.431  209.567  209.945  209.303  210.387  210.965  210.382  209.228  209.979  208.013  209.485  209.758  208.947  210.583  211.125  211.445  211.251  209.425  210.179  210.682  209.860  209.374  210.407  210.056  210.015  210.381  209.688  208.804 
DATE 2017:065:02:09:16 obsn  40 az 175 el 57 freq_MHz  1420.4000 Tsys 195.571 Tant 29.592 vlsr   41.14 glat  0.188 glon 210.118 source G210.0 
Fstart 1419.397 fstop 1421.403 spacing 0.009375 bw    2.400 fbw    2.000 MHz nfreq 256 nsam 5242880 npoint 214 integ     8 sigma    0.730 bsw 0
Spectrum      7 integration periods
 220.359  220.095  219.833  219.614  218.646  218.358  219.185  219.306  219.093  217.941  219.725  220.119  218.099  218.746  218.416  218.015  218.653  216.857  218.394  218.759  219.194  217.565  218.263  218.302  217.927  217.640  217.450  217.543  220.289  219.702  218.022  218.019  219.001  220.509  218.385  219.697  218.907  219.113  218.610  218.397  217.065  218.206  217.973  219.243  217.742  216.711  215.094  217.944  216.951  217.803  218.326  219.168  218.450  219.347  219.102  219.805  220.226  222.496  224.116  223.379  225.066  228.526  232.662  241.707  247.618  256.091  268.037  276.691  284.979  285.542  292.882  285.489  277.895  268.143  262.022  258.286  260.031  263.972  266.770  271.877  273.600  274.818  271.327  272.156  278.630  286.173  292.412  291.209  286.344  275.713  260.850  245.108  233.949  228.232  222.872  222.725  219.218  218.006  217.844  215.589  216.892  216.524  214.985  215.753  216.666  216.965  215.936  215.816  215.515  217.623  216.174  215.264  216.044  215.241  215.784  215.237  214.365  215.288  215.371  215.605  214.801  216.143  215.544  214.903  215.470  213.559  215.390  215.564  215.948  215.573  215.850  215.159  215.339  216.196  214.834  214.188  214.000  215.708  214.275  215.016  214.067  215.182  215.189  214.539  214.659  214.564  213.949  214.680  214.309  215.700  214.558  214.304  214.586  213.235  213.316  213.585  212.980  213.622  214.062  213.772  212.411  213.763  213.863  212.930  213.709  216.293  213.204  213.415  213.015  213.621  214.993  212.816  212.379  213.745  212.033  212.655  214.588  215.078  214.494  214.724  213.649  214.212  214.812  214.904  214.474  215.107  214.197  212.768  215.321  215.044  212.732  213.569  214.159  213.116  214.314  213.049  213.533  213.011  214.026  213.179  213.575  212.704  213.352  215.885  213.742  213.957  214.348  214.720  213.765  213.155  213.593  214.249  213.177  212.084 
DATE 2017:065:02:09:37 obsn  41 az 173 el 55 freq_MHz  1420.4000 Tsys 195.571 Tant 33.362 vlsr   40.78 glat  0.184 glon 212.618 source G212.5 
Fstart 1419.397 fstop 1421.403 spacing 0.009375 bw    2.400 fbw    2.000 MHz nfreq 256 nsam 5242880 npoint 214 integ     9 sigma    0.683 bsw 0
Spectrum      8 integration periods
 222.990  221.653  223.585  224.320  222.934  223.699  223.723  224.994  223.621  223.585  223.961  223.762  222.621  223.914  224.459  225.462  224.382  223.391  222.452  222.691  223.642  222.223  221.716  223.690  222.956  224.003  223.960  223.770  224.452  223.316  222.160  223.520  223.551  224.303  221.613  223.245  222.853  223.920  222.925  222.818  223.595  224.063  224.513  222.012  223.094  223.133  223.052  221.905  221.895  223.712  225.105  224.664  223.845  224.485  226.111  224.474  227.059  228.398  232.063  232.655  237.061  242.875  250.608  258.190  263.956  276.816  281.622  288.702  292.520  288.406  289.243  282.131  274.663  267.990  265.439  265.903  268.215  273.623  279.633  282.153  281.084  278.707  273.379  274.286  278.666  282.702  286.442  287.911  284.164  276.298  263.329  250.897  241.188  231.969  228.463  225.190  225.951  223.961  223.258  222.625  223.543  222.507  220.469  221.664  220.906  222.528  220.411  219.830  221.113  221.064  222.698  221.325  220.114  220.756  220.894  219.909  219.967  221.036  222.834  221.239  221.249  220.217  220.661  220.709  222.499  219.705  222.480  220.957  220.148  220.273  221.696  221.073  219.690  221.282  220.934  221.141  219.716  220.762  219.823  221.210  218.707  220.546  220.720  221.059  218.433  220.074  220.027  219.050  220.006  219.584  218.580  219.335  220.667  219.855  219.552  218.755  218.388  218.419  219.388  218.266  219.815  217.941  219.385  218.961  218.910  219.228  219.326  217.934  218.975  219.174  217.610  218.301  218.182  218.657  219.077  219.227  218.479  218.973  218.362  218.091  218.984  217.708  218.821  219.291  217.802  219.146  218.399  218.193  219.084  217.137  218.839  218.537  219.540  218.450  218.643  217.447  217.907  219.387  217.159  218.150  218.958  217.676  218.809  219.336  218.468  216.886  219.703  218.920  217.829  217.317  218.475  218.008  216.744  219.120 
DATE 2017:065:02:09:58 obsn  42 az 172 el 53 freq_MHz  1420.4000 Tsys 195.571 Tant 33.487 vlsr   40.34 glat  0.180 glon 215.118 source G215.0 
Fstart 1419.397 fstop 1421.403 spacing 0.009375 bw    2.400 fbw    2.000 MHz nfreq 256 nsam 5242880 npoint 214 integ    10 sigma    0.644 bsw 0
Spectrum      9 integration periods
 221.058  221.468  222.141  224.649  221.237  221.760  222.720  224.669  221.874  220.171  220.605  222.816  221.074  221.237  219.792  222.580  221.769  220.848  220.394  221.137  222.137  221.381  221.389  221.185  221.932  221.169  221.773  221.663  223.517  221.763  222.318  220.582  221.541  221.592  220.896  222.045  221.016  223.036  220.349  220.351  221.235  224.024  220.762  222.506  221.634  221.102  221.468  221.490  221.985  222.518  224.023  222.683  223.554  223.966  227.161  225.100  226.454  230.059  233.921  237.381  242.259  249.070  259.753  268.095  275.693  284.140  289.918  289.255  288.969  281.177  275.025  270.846  264.224  258.792  259.117  265.470  270.677  275.943  281.210  284.294  281.145  275.127  271.669  272.845  279.014  279.767  281.446  277.696  272.673  263.466  253.849  245.573  237.279  232.063  228.559  225.527  226.578  223.131  222.624  221.450  221.170  220.839  221.313  220.568  220.391  223.004  219.771  218.418  218.397  220.933  219.510  219.343  218.276  220.639  221.092  219.910  220.363  219.720  222.612  219.783  219.708  220.315  219.931  219.417  220.639  219.345  219.729  220.022  219.623  219.336  222.346  220.805  219.832  218.955  220.082  219.970  219.377  219.476  220.576  221.049  218.789  219.091  218.892  220.031  219.534  219.699  219.243  220.180  219.686  218.467  219.849  219.942  222.129  218.176  218.537  218.559  219.120  219.347  218.447  218.621  219.671  217.522  218.406  216.703  218.481  218.680  218.647  218.657  219.325  219.555  218.180  219.575  217.465  219.980  219.298  218.831  218.239  218.951  219.126  218.214  219.356  217.393  220.463  220.140  217.947  219.655  218.498  217.316  219.733  219.588  218.851  219.085  217.483  217.652  219.780  217.660  219.003  218.109  217.396  218.112  218.509  218.337  218.622  220.906  218.553  218.662  218.936  220.780  218.248  217.170  217.672  220.368  217.864  218.798 
DATE 2017:065:02:10:36 obsn  43 az 169 el 48 freq_MHz  1420.4000 Tsys 195.571 Tant 28.773 vlsr   39.23 glat  0.171 glon 220.118 source G220.0 
Fstart 1419.397 fstop 1421.403 spacing 0.009375 bw    2.400 fbw    2.000 MHz nfreq 256 nsam 5242880 npoint 214 integ     7 sigma    0.789 bsw 0
Spectrum      6 integration periods
 219.485  217.251  218.650  218.855  219.617  219.113  218.809  217.800  219.626  218.449  217.485  217.082  218.424  217.142  217.050  220.272  218.594  217.785  216.640  216.994  217.090  216.312  217.632  218.172  218.161  217.981  217.829  217.658  219.105  216.930  217.629  218.115  218.091  218.784  218.544  217.554  217.382  218.408  218.742  217.758  217.158  219.781  216.976  217.516  217.823  218.748  218.046  219.141  218.957  218.697  220.449  221.016  222.447  222.222  223.161  225.991  230.219  235.758  244.981  249.306  255.378  264.396  267.914  272.248  272.150  271.772  267.516  263.318  260.588  257.101  252.979  255.731  253.481  256.279  258.394  262.863  259.700  254.138  252.518  250.022  251.966  255.387  264.125  272.571  282.524  286.508  283.561  272.510  259.644  246.774  242.117  242.196  238.491  236.189  227.777  223.314  221.105  218.874  216.790  216.458  215.870  215.475  218.278  216.443  215.565  218.014  214.716  213.627  213.775  216.564  215.947  215.504  215.328  214.752  214.452  216.074  215.076  214.771  216.814  216.001  215.915  215.890  214.406  213.873  214.186  213.803  215.352  215.062  214.122  214.994  216.204  215.773  214.496  215.230  214.417  214.859  215.788  215.255  213.776  215.002  214.373  215.012  214.677  213.457  214.189  214.355  215.506  215.671  215.231  214.476  214.287  217.993  217.250  213.803  213.875  213.776  213.699  214.386  214.669  211.769  216.159  213.535  213.863  214.565  213.432  214.089  212.998  213.132  213.747  214.454  214.305  213.993  213.400  215.663  213.944  214.970  213.397  214.811  213.675  215.662  213.815  214.300  215.389  214.868  214.704  215.139  215.293  214.381  214.962  215.347  215.787  214.959  215.717  214.118  214.980  213.252  213.979  214.074  213.498  213.261  212.979  214.253  214.488  216.450  213.263  215.096  214.841  214.870  215.167  213.918  214.940  215.315  212.941  215.252 
DATE 2017:065:02:10:57 obsn  44 az 168 el 46 freq_MHz  1420.4000 Tsys 195.571 Tant 29.190 vlsr   38.56 glat  0.166 glon 222.618 source G222.5 
Fstart 1419.397 fstop 1421.403 spacing 0.009375 bw    2.400 fbw    2.000 MHz nfreq 256 nsam 5242880 npoint 214 integ     8 sigma    0.730 bsw 0
Spectrum      7 integration periods
 220.242  221.078  219.227  221.507  220.427  219.858  220.278  221.513  220.757  220.552  218.586  218.853  217.931  220.505  219.339  218.184  219.933  219.465  218.840  218.096  219.867  219.855  220.404  219.197  218.923  220.159  219.533  218.966  220.828  220.048  219.715  218.048  219.052  219.580  218.353  219.878  218.940  219.009  218.053  219.502  218.100  219.413  218.998  220.425  219.754  219.905  218.702  220.344  220.966  222.421  222.932  223.295  226.161  228.579  231.257  235.359  238.973  246.182  253.972  259.046  263.716  268.154  268.549  269.725  264.254  262.730  261.788  255.159  254.933  250.041  252.259  250.195  252.555  256.204  260.125  257.603  253.204  248.400  243.895  242.735  246.064  252.471  260.728  274.518  285.447  289.761  288.429  278.708  262.849  251.055  246.266  245.972  248.240  244.365  235.354  225.522  220.178  220.460  219.159  217.799  216.883  216.716  216.809  217.828  217.097  217.672  217.595  216.587  215.990  215.776  216.561  215.915  215.999  216.616  217.830  216.202  216.761  216.016  216.504  216.765  216.243  216.318  215.532  216.719  215.970  214.474  215.736  214.939  215.236  217.065  216.726  214.898  216.781  216.195  215.144  217.965  217.234  218.222  215.069  217.237  215.487  215.286  216.985  217.793  215.646  214.792  216.333  215.428  215.505  215.236  214.936  218.976  217.571  214.521  213.976  214.524  214.798  213.977  214.797  213.251  213.074  214.061  215.590  215.490  213.876  213.425  213.238  213.628  215.336  214.428  213.787  213.504  215.079  214.513  212.807  216.183  215.129  214.945  215.309  214.955  215.164  216.454  215.612  214.977  216.045  214.780  214.685  215.048  213.959  214.865  215.126  215.103  214.789  214.218  214.161  215.160  214.267  213.854  214.682  214.893  213.358  213.686  214.347  215.425  214.739  214.964  216.128  214.241  214.498  214.851  213.149  214.243  214.742  213.629 
DATE 2017:065:02:11:34 obsn  45 az 167 el 41 freq_MHz  1420.4000 Tsys 195.571 Tant 24.896 vlsr   37.00 glat  0.155 glon 227.618 source G227.5 
Fstart 1419.397 fstop 1421.403 spacing 0.009375 bw    2.400 fbw    2.000 MHz nfreq 256 nsam 5242880 npoint 214 integ     3 sigma    1.116 bsw 0
Spectrum      3 integration periods
 211.038  212.145  210.490  212.282  211.580  211.512  213.028  213.337  212.399  211.877  210.949  211.334  211.996  212.066  211.746  211.389  211.260  212.331  209.502  210.769  210.999  212.540  209.976  214.002  210.916  213.426  212.912  212.110  213.456  211.394  210.537  213.518  213.019  211.584  209.577  209.629  209.694  214.083  213.291  211.658  212.876  213.745  213.070  211.502  214.029  216.921  214.486  214.127  216.581  218.993  223.781  222.290  225.790  229.697  235.823  235.176  243.569  247.532  253.030  258.213  251.365  247.383  243.152  243.847  238.847  237.681  240.038  238.295  238.847  239.630  247.253  247.758  246.632  248.251  255.317  251.104  242.595  237.243  235.314  237.503  247.566  249.201  256.811  267.938  277.605  278.405  273.422  262.933  250.494  240.386  237.294  240.454  247.770  248.628  238.138  225.547  219.371  214.934  217.346  214.726  213.581  211.891  212.460  211.827  211.995  213.025  213.202  214.603  213.366  212.407  211.246  211.429  212.296  212.299  212.993  211.783  210.848  211.827  211.959  213.102  213.969  213.664  213.049  211.959  212.518  212.012  213.208  213.625  213.089  214.049  214.214  213.012  214.198  212.247  212.506  211.934  212.707  213.525  214.193  213.993  212.128  210.965  212.622  214.615  214.065  210.792  211.047  211.082  212.933  211.706  211.483  214.395  214.143  212.509  211.748  211.232  212.193  211.647  210.740  211.424  213.169  212.442  212.248  211.809  211.569  213.232  211.955  212.653  211.284  211.235  210.452  210.783  211.980  213.025  212.361  213.017  211.060  211.028  212.533  214.383  212.732  210.803  214.377  212.584  212.487  212.942  212.253  213.759  214.266  211.694  212.208  211.456  210.877  211.750  211.258  214.689  210.275  212.527  210.250  210.593  211.580  211.369  210.181  212.491  213.491  212.974  212.720  212.849  212.404  211.378  211.798  212.235  212.434  211.900 
DATE 2017:065:02:11:55 obsn  46 az 166 el 38 freq_MHz  1420.4000 Tsys 195.571 Tant 18.998 vlsr   36.12 glat  0.149 glon 230.118 source G230.0 
Fstart 1419.397 fstop 1421.403 spacing 0.009375 bw    2.400 fbw    2.000 MHz nfreq 256 nsam 5242880 npoint 214 integ     3 sigma    1.116 bsw 0
Spectrum      3 integration periods
 206.394  204.199  204.879  206.775  204.778  206.087  204.573  206.567  204.741  206.858  204.798  202.907  205.926  206.098  202.749  205.540  203.248  205.911  203.029  205.483  204.990  204.808  205.922  205.482  207.029  206.059  203.032  200.948  207.424  203.072  204.616  203.757  205.003  205.586  206.377  204.559  206.283  205.964  205.168  205.504  206.229  210.239  208.585  208.216  209.118  207.831  207.782  207.849  212.323  212.932  217.390  219.977  222.932  225.624  229.320  231.666  237.229  244.890  247.806  248.776  249.208  241.566  241.688  233.551  234.390  235.024  239.101  239.668  251.840  253.677  256.749  257.707  253.828  253.481  249.589  248.880  238.918  232.644  234.220  236.064  243.346  248.490  249.867  260.431  264.745  259.150  252.267  242.031  235.457  229.696  225.668  225.419  232.380  236.797  231.565  225.652  219.244  212.160  207.736  208.322  205.963  206.924  205.089  206.489  204.660  207.891  205.897  204.655  207.316  205.482  206.606  203.394  205.196  205.545  204.993  205.968  204.382  204.534  208.889  206.318  205.223  205.388  204.568  205.802  204.746  203.755  209.334  206.342  208.273  208.272  208.854  205.722  203.176  207.477  205.873  207.350  206.412  208.370  206.067  208.541  206.863  204.359  206.858  205.766  207.683  204.798  208.310  208.013  206.383  204.842  205.129  205.469  208.640  205.374  205.825  205.602  206.373  205.060  205.315  205.942  208.056  205.316  207.119  207.114  207.060  205.083  205.554  208.731  206.461  207.605  208.643  204.050  207.297  206.244  207.661  205.855  208.528  206.472  204.515  206.099  205.657  207.214  210.374  207.274  207.376  206.938  206.566  207.257  206.898  206.618  209.298  207.146  205.984  206.309  207.135  204.964  207.046  207.757  207.381  206.607  206.603  206.187  207.565  208.436  207.917  207.811  210.185  208.179  205.970  206.471  206.765  209.689  206.709  206.835 
DATE 2017:065:02:12:17 obsn  47 az 165 el 36 freq_MHz  1420.4000 Tsys 195.571 Tant 15.773 vlsr   35.17 glat  0.142 glon 232.618 source G232.5 
Fstart 1419.397 fstop 1421.403 spacing 0.009375 bw    2.400 fbw    2.000 MHz nfreq 256 nsam 5242880 npoint 214 integ     3 sigma    1.116 bsw 0
Spectrum      3 integration periods
 205.197  203.961  204.534  205.137  205.027  204.482  203.167  202.980  203.092  202.769  202.833  203.590  204.184  202.875  201.494  202.327  203.133  203.410  203.102  202.013  203.010  202.272  203.003  203.666  202.743  201.333  204.356  205.302  204.884  203.283  203.756  201.542  203.227  204.587  201.578  203.594  204.149  204.684  204.839  207.579  205.575  206.782  206.962  206.487  206.901  209.248  207.309  208.222  209.209  213.117  216.918  219.663  224.510  229.255  234.204  235.003  239.063  244.163  249.341  246.943  245.242  242.487  241.777  237.487  238.147  238.927  238.719  243.985  257.079  257.289  253.273  255.664  240.791  240.938  237.273  232.853  228.142  224.479  227.800  230.919  237.362  246.740  252.573  257.601  261.569  256.525  250.055  239.245  233.828  224.633  222.259  218.299  219.373  224.175  226.548  221.585  218.175  210.544  208.734  204.787  204.942  203.597  202.310  202.378  204.602  203.736  204.264  200.562  203.784  204.342  203.960  202.565  201.047  202.913  202.265  202.891  202.359  202.391  204.682  202.393  201.946  202.150  202.917  203.356  202.234  202.235  201.381  204.735  201.118  204.331  203.666  203.813  204.279  201.852  203.893  200.073  201.878  200.875  203.867  205.587  201.605  203.940  202.873  203.006  202.169  203.038  202.723  202.914  201.792  200.962  203.435  201.713  205.051  203.165  200.486  202.001  200.727  200.997  200.746  202.194  203.285  203.254  202.952  203.174  201.978  201.873  202.988  202.187  202.781  202.921  202.834  201.771  200.775  200.844  204.370  200.511  203.407  201.164  201.481  203.413  201.546  204.455  204.710  199.669  201.244  202.380  203.123  202.258  203.198  202.709  203.093  203.074  201.845  203.242  203.547  205.251  202.774  204.417  199.273  202.220  201.736  201.913  200.104  204.219  203.383  204.073  204.510  203.969  205.192  203.031  204.310  205.342  203.442  205.222 
DATE 2017:065:02:12:38 obsn  48 az 164 el 34 freq_MHz  1420.4000 Tsys 195.571 Tant 20.627 vlsr   34.15 glat  0.136 glon 235.118 source G235.0 
Fstart 1419.397 fstop 1421.403 spacing 0.009375 bw    2.400 fbw    2.000 MHz nfreq 256 nsam 5242880 npoint 214 integ     3 sigma    1.116 bsw 0
Spectrum      3 integration periods
 208.462  208.420  208.372  212.104  208.070  206.740  209.509  212.871  208.193  208.310  209.433  206.639  206.435  207.084  204.881  210.200  209.026  206.068  205.731  206.320  209.925  206.771  207.495  207.587  208.669  206.801  208.012  207.942  213.055  207.087  206.008  209.008  210.110  208.690  208.817  210.840  207.897  210.905  211.478  211.285  213.308  215.854  212.300  212.208  212.880  211.408  215.100  216.356  217.067  224.735  228.552  231.933  233.937  237.365  247.630  246.040  248.193  250.827  253.959  250.838  249.221  246.057  249.944  244.813  246.404  246.461  248.276  252.981  259.320  259.198  244.156  255.495  236.626  231.767  228.448  228.944  225.834  222.947  221.807  231.628  240.410  247.641  258.146  265.171  268.855  264.555  258.773  252.292  242.477  231.406  227.553  221.665  223.416  222.377  225.271  226.849  228.788  220.357  213.588  211.900  211.337  206.939  206.731  208.590  208.169  209.974  206.389  206.482  206.083  208.763  208.291  208.229  206.433  207.020  207.337  206.365  207.729  206.495  211.101  205.225  204.001  204.694  209.117  208.522  208.234  206.143  210.134  207.302  206.348  206.615  211.259  208.852  207.017  206.910  208.147  206.708  206.928  205.973  206.487  210.906  206.111  207.054  206.854  210.064  205.896  207.181  207.607  208.327  206.281  207.595  205.624  208.587  211.350  207.681  207.164  208.726  207.803  206.560  209.027  206.645  209.941  205.584  204.732  206.077  206.268  208.016  206.585  205.145  205.223  206.092  207.338  206.405  205.778  210.255  208.066  205.472  205.311  203.393  204.257  206.121  206.695  205.167  213.093  205.269  207.491  206.023  209.677  204.612  207.008  205.478  207.741  205.367  206.988  205.246  208.688  206.429  206.542  205.692  205.642  206.505  205.715  205.631  207.422  211.025  209.061  208.377  205.566  208.466  205.473  205.010  203.145  207.711  206.828  207.179 
DATE 2017:065:02:12:59 obsn  49 az 164 el 31 freq_MHz  1420.4000 Tsys 195.571 Tant 21.958 vlsr   33.06 glat  0.129 glon 237.618 source G237.5 
Fstart 1419.397 fstop 1421.403 spacing 0.009375 bw    2.400 fbw    2.000 MHz nfreq 256 nsam 5242880 npoint 214 integ     4 sigma    0.966 bsw 0
Spectrum      4 integration periods
 209.351  208.865  211.731  213.131  210.506  210.067  211.678  214.231  210.633  209.572  210.437  208.685  209.831  210.625  207.992  213.479  211.875  209.802  208.765  208.494  211.142  210.612  210.320  210.758  211.878  211.168  209.321  209.137  215.756  209.626  208.929  210.637  213.444  213.519  211.949  210.486  212.245  215.667  212.580  214.902  217.033  220.471  216.690  216.573  215.734  217.318  219.264  221.778  226.613  232.566  240.974  239.981  245.855  249.788  255.400  253.009  250.963  251.395  252.212  249.125  247.384  245.742  253.221  248.773  248.955  247.104  242.945  242.254  243.248  243.541  231.341  249.257  223.685  220.607  218.744  222.547  218.242  216.829  221.090  222.619  229.090  238.092  248.874  259.503  271.685  273.398  273.047  264.751  258.262  242.885  235.427  227.019  224.200  221.253  222.957  220.631  228.319  218.969  214.737  215.005  212.388  210.207  210.695  211.534  211.529  215.903  212.369  211.081  211.153  213.021  210.581  210.345  210.862  207.167  208.286  208.833  210.504  210.505  216.508  210.232  208.814  209.180  211.073  209.185  207.725  210.583  209.501  210.982  208.909  209.013  215.196  210.719  208.086  209.566  210.775  210.341  212.309  211.985  209.173  214.354  209.824  208.995  209.859  212.556  209.511  208.343  208.608  212.371  210.815  209.215  210.448  210.488  214.913  209.693  209.154  210.588  210.247  209.493  208.664  210.734  216.294  209.070  208.635  209.492  209.309  211.282  210.697  208.593  207.300  212.781  209.404  209.587  211.464  215.889  210.128  209.797  209.672  207.859  208.790  211.211  209.643  211.581  216.900  211.522  210.133  209.869  212.592  210.142  210.024  209.529  211.927  206.913  209.650  209.120  213.423  208.539  208.603  208.989  209.927  210.085  207.594  209.276  210.276  214.075  210.622  210.694  209.873  210.651  210.042  210.540  208.423  214.081  209.714  210.285 
DATE 2017:065:02:13:20 obsn  50 az 163 el 29 freq_MHz  1420.4000 Tsys 195.571 Tant 20.501 vlsr   31.91 glat  0.122 glon 240.118 source G240.0 
Fstart 1419.397 fstop 1421.403 spacing 0.009375 bw    2.400 fbw    2.000 MHz nfreq 256 nsam 5242880 npoint 214 integ     4 sigma    0.966 bsw 0
Spectrum      4 integration periods
 207.173  206.128  206.471  212.407  206.427  207.963  206.383  213.439  206.605  207.602  206.566  207.180  206.255  206.566  205.303  212.092  208.033  205.998  205.297  207.492  210.764  208.173  208.124  207.113  208.384  206.405  206.834  206.959  213.976  209.429  208.550  208.511  209.739  209.495  207.563  210.457  209.073  212.891  210.253  210.469  212.481  218.665  212.347  213.278  213.227  214.348  215.697  219.210  223.586  229.142  238.639  236.227  239.952  240.504  247.274  242.907  241.585  241.929  242.359  240.231  239.719  242.438  251.904  243.707  244.539  242.022  240.320  236.386  242.373  235.547  222.746  241.684  217.730  214.754  211.928  218.583  211.979  212.606  212.625  214.712  218.986  225.674  232.275  243.780  259.691  262.513  266.992  266.288  262.416  248.906  234.577  229.242  224.760  219.895  217.257  216.101  227.223  216.246  213.969  212.947  210.484  210.411  209.151  207.852  207.501  213.611  207.090  206.400  207.173  212.495  208.559  206.751  205.483  207.635  205.889  207.157  206.153  207.595  215.153  207.442  207.753  208.443  210.682  207.418  207.591  208.567  212.686  209.437  208.918  207.960  219.193  210.838  207.786  209.481  207.634  208.054  207.800  208.872  208.183  217.169  210.978  206.795  207.058  209.794  207.740  208.706  207.068  209.852  210.077  207.248  205.876  207.312  215.257  207.005  207.652  207.603  206.868  208.008  209.649  208.765  215.058  207.382  208.064  206.295  210.260  209.853  208.890  208.518  208.692  210.125  208.056  208.580  207.413  217.202  208.319  207.948  207.673  206.345  208.437  207.209  208.542  208.624  216.928  208.647  208.347  208.457  211.359  209.674  208.732  207.680  211.982  207.790  207.492  208.634  216.218  207.583  207.617  208.692  208.197  208.468  208.821  206.568  209.905  218.951  206.913  208.871  210.874  209.264  207.940  207.730  209.208  214.326  208.945  208.138 
DATE 2017:065:02:13:41 obsn  51 az 162 el 26 freq_MHz  1420.4000 Tsys 195.571 Tant 20.701 vlsr   30.71 glat  0.114 glon 242.618 source G242.5 
Fstart 1419.397 fstop 1421.403 spacing 0.009375 bw    2.400 fbw    2.000 MHz nfreq 256 nsam 5242880 npoint 214 integ     5 sigma    0.864 bsw 0
Spectrum      5 integration periods
 210.383  210.495  209.780  213.937  210.412  212.460  209.426  215.869  210.844  210.797  209.174  211.632  209.858  210.479  210.019  213.582  211.208  207.976  208.455  209.817  210.644  209.677  210.172  209.507  211.865  210.598  210.781  209.571  218.026  210.114  212.247  210.264  213.372  212.590  211.657  211.261  212.780  217.061  215.289  212.400  216.377  221.686  214.917  215.436  218.075  219.271  218.562  221.072  226.033  232.658  238.430  237.120  240.734  241.573  244.601  241.152  235.960  235.203  236.376  234.785  236.164  235.807  244.864  239.999  236.240  235.605  236.267  234.569  243.323  238.989  241.489  246.013  222.228  219.520  215.730  223.089  215.338  214.119  215.202  214.658  216.493  218.559  226.275  232.105  249.879  254.690  265.857  273.823  274.584  264.706  255.093  244.574  240.299  230.740  227.400  220.815  227.697  217.934  215.787  216.036  217.152  214.757  213.325  210.488  210.081  215.450  209.931  210.388  210.858  213.961  210.574  208.725  207.452  209.074  209.842  209.460  207.108  210.014  215.654  209.680  209.225  209.365  210.176  209.794  207.990  209.007  213.485  208.738  208.600  211.968  215.180  209.403  209.430  208.448  210.365  209.937  210.481  211.476  210.008  217.274  209.069  208.595  209.741  211.420  209.746  210.221  209.339  212.274  212.670  208.564  210.396  213.687  217.302  208.557  210.503  209.260  210.020  210.739  210.029  210.101  217.256  209.081  208.912  208.934  211.152  212.762  210.862  209.108  208.276  212.627  209.189  208.150  209.683  217.989  209.478  209.278  209.986  210.317  209.301  209.379  210.515  209.835  216.940  209.471  210.875  208.408  213.434  210.809  210.166  210.143  215.008  209.807  210.700  211.106  216.205  209.867  210.730  210.860  211.551  211.780  212.298  209.423  209.801  219.153  211.059  211.497  215.181  211.692  211.435  212.539  210.804  217.005  211.710  210.943 
DATE 2017:065:02:14:11 obsn  52 az 162 el 24 freq_MHz  1420.4000 Tsys 195.571 Tant 22.808 vlsr   29.44 glat  0.107 glon 245.118 source G245.0 
Fstart 1419.397 fstop 1421.403 spacing 0.009375 bw    2.400 fbw    2.000 MHz nfreq 256 nsam 5242880 npoint 214 integ     7 sigma    0.789 bsw 0
Spectrum      6 integration periods
 211.482  212.197  209.838  216.304  211.421  211.608  210.645  217.270  210.719  211.769  210.623  211.161  209.616  209.114  210.302  217.747  212.179  210.348  210.689  210.032  213.022  210.478  210.700  211.081  210.832  210.054  211.032  210.589  218.749  211.332  209.058  210.608  212.756  213.624  212.309  212.597  213.957  216.354  212.796  213.896  215.426  222.669  216.495  217.465  220.484  220.735  221.267  224.621  229.714  235.738  241.516  241.849  243.419  244.823  247.174  241.388  238.364  233.938  234.313  233.989  234.424  235.136  241.638  236.750  232.461  230.034  230.434  232.786  243.205  241.166  244.710  247.331  225.031  220.604  219.176  223.783  216.204  213.915  215.410  216.106  216.494  217.896  222.077  231.029  246.437  252.956  265.071  273.044  276.654  270.416  264.487  256.588  252.285  243.629  236.673  227.953  230.684  219.659  219.745  218.806  218.047  213.879  213.624  212.230  213.276  217.017  210.729  212.116  209.814  215.430  209.826  210.108  209.835  210.858  209.785  210.165  210.650  210.028  216.794  209.985  211.830  211.201  212.532  209.283  210.702  209.553  212.137  210.944  209.750  210.513  215.652  211.660  211.281  211.229  210.874  211.419  211.578  209.729  208.632  218.237  208.752  210.048  209.689  211.776  208.343  211.851  210.800  212.182  212.064  209.736  209.742  212.580  216.984  211.450  208.588  210.666  210.210  209.980  210.921  210.372  218.026  209.561  209.001  209.473  213.692  211.341  209.556  210.025  210.795  212.923  210.060  209.990  212.019  218.617  210.464  210.980  209.678  208.928  208.051  209.674  210.456  210.079  219.800  209.795  209.321  209.326  212.950  211.676  210.012  210.972  213.432  209.043  211.533  210.642  216.243  209.932  210.563  210.835  210.021  211.719  209.614  210.326  210.678  217.277  209.195  213.662  214.264  214.087  210.909  210.270  211.083  213.993  211.125  211.208 
DATE 2017:065:02:14:32 obsn  53 az 161 el 22 freq_MHz  1420.4000 Tsys 195.571 Tant 28.336 vlsr   28.12 glat  0.099 glon 247.618 source G247.5 
Fstart 1419.397 fstop 1421.403 spacing 0.009375 bw    2.400 fbw    2.000 MHz nfreq 256 nsam 5242880 npoint 214 integ     7 sigma    0.789 bsw 0
Spectrum      6 integration periods
 217.139  216.054  216.268  219.665  215.015  214.957  214.373  220.683  214.983  216.383  214.700  215.603  215.007  215.509  215.340  220.191  217.796  214.338  215.307  215.176  217.948  214.138  213.201  213.671  215.303  214.715  214.796  216.189  224.243  215.678  215.849  216.360  216.528  216.533  217.002  217.226  217.796  221.904  218.045  218.565  218.792  226.723  220.154  221.883  222.508  225.328  228.252  230.015  237.138  244.029  250.001  244.643  248.132  248.438  251.341  245.015  239.763  236.696  238.217  236.703  235.659  238.226  246.439  241.898  235.584  235.363  233.586  234.387  245.044  244.054  266.316  261.905  232.439  227.319  226.900  231.464  222.437  221.375  221.205  217.666  219.495  221.862  226.418  233.840  249.321  254.243  265.584  274.246  278.605  275.177  271.317  266.764  264.981  258.123  252.215  244.013  242.836  229.756  226.335  225.766  223.223  220.730  218.898  216.873  215.821  220.346  213.641  212.413  212.222  219.300  213.542  213.730  212.961  213.354  213.548  212.713  212.377  214.129  220.656  212.970  211.399  212.215  215.092  213.898  213.765  213.830  216.871  213.321  213.132  214.506  219.154  215.500  212.417  213.544  213.703  213.096  214.974  214.356  213.938  222.022  212.406  213.968  213.951  214.616  212.674  211.705  212.808  215.339  215.550  213.172  211.769  214.420  219.647  210.965  213.584  214.463  211.742  211.529  213.177  211.428  220.422  212.329  212.054  213.567  212.581  215.574  212.949  210.592  212.946  215.427  210.618  211.766  211.596  218.762  213.964  213.133  213.612  212.125  211.957  212.176  213.756  212.719  220.802  213.489  211.607  213.357  214.943  213.598  212.738  212.389  215.538  210.981  212.546  212.295  217.734  212.436  213.392  213.793  213.668  212.543  213.901  212.614  213.703  221.233  214.103  213.525  213.391  213.923  212.449  213.382  213.149  216.551  213.272  214.321 
DATE 2017:065:02:14:53 obsn  54 az 161 el 19 freq_MHz  1420.4000 Tsys 195.571 Tant 30.549 vlsr   26.74 glat  0.091 glon 250.118 source G250.0 
Fstart 1419.397 fstop 1421.403 spacing 0.009375 bw    2.400 fbw    2.000 MHz nfreq 256 nsam 5242880 npoint 214 integ     8 sigma    0.730 bsw 0
Spectrum      7 integration periods
 218.088  217.243  219.294  224.534  216.853  216.887  216.096  224.409  218.500  216.522  217.627  218.954  216.681  216.428  215.088  226.032  221.233  216.704  216.783  216.867  220.886  217.653  216.852  216.399  219.217  218.845  219.577  217.135  227.403  217.667  218.102  217.472  220.802  220.970  217.848  219.636  220.843  225.466  219.851  219.538  220.219  231.707  224.651  225.591  227.784  230.546  236.132  239.286  244.306  250.739  256.740  250.124  251.824  249.728  253.317  243.844  242.040  238.084  240.941  237.341  236.868  237.956  246.737  242.877  234.555  232.640  234.202  235.443  245.052  246.878  267.093  279.018  238.456  237.060  235.519  242.689  233.086  230.095  228.769  229.008  228.369  231.911  236.134  241.717  254.837  254.580  263.256  269.410  274.343  272.410  272.348  274.502  278.117  275.102  268.624  262.737  262.368  243.351  238.604  235.846  230.817  227.160  224.942  221.249  221.710  224.487  218.439  218.591  216.749  222.399  217.829  216.204  217.856  216.959  216.314  214.781  216.096  217.176  225.148  216.815  216.802  216.989  216.801  215.380  218.851  216.556  220.489  217.217  216.907  217.505  225.197  217.136  216.537  216.127  215.970  216.678  217.187  217.566  216.439  224.792  216.837  217.585  215.093  220.221  219.126  214.942  216.592  218.166  220.040  215.965  215.629  217.454  224.325  215.733  215.689  215.095  216.218  216.345  214.625  216.231  225.255  216.579  215.734  214.680  218.137  218.278  215.703  216.276  216.567  218.896  216.835  216.215  216.556  223.206  215.913  216.968  215.719  215.979  214.853  216.737  215.282  216.929  225.819  216.904  217.093  217.593  219.807  216.638  215.431  216.766  219.913  216.284  216.910  215.881  224.335  215.603  216.160  217.725  217.237  216.227  217.374  216.588  217.419  226.531  216.231  217.395  218.346  218.377  217.321  217.341  216.013  221.494  216.115  216.152 
DATE 2017:065:02:15:14 obsn  55 az 160 el 17 freq_MHz  1420.4000 Tsys 195.571 Tant 32.514 vlsr   25.31 glat  0.083 glon 252.618 source G252.5 
Fstart 1419.397 fstop 1421.403 spacing 0.009375 bw    2.400 fbw    2.000 MHz nfreq 256 nsam 5242880 npoint 214 integ     9 sigma    0.683 bsw 0
Spectrum      8 integration periods
 217.378  217.393  217.904  222.312  218.246  217.596  218.937  223.809  217.140  215.908  216.963  217.885  217.352  216.589  216.184  222.227  219.571  216.688  216.958  217.761  220.443  217.351  218.378  218.529  218.962  218.484  217.654  217.973  227.371  219.185  217.813  218.780  219.611  220.622  219.994  220.237  220.770  224.406  222.237  219.930  222.131  230.501  225.076  226.046  229.817  233.379  236.683  241.475  243.086  245.838  248.977  240.776  241.844  239.428  245.741  240.251  240.899  241.979  242.592  240.009  240.264  237.384  243.939  239.758  232.817  232.535  232.977  234.000  240.494  241.436  247.846  272.738  239.185  240.474  239.314  243.571  234.671  233.284  234.265  235.555  236.724  242.198  246.805  251.136  262.034  258.598  262.247  262.749  264.687  265.521  265.075  269.455  274.268  276.493  276.464  273.726  275.814  259.109  250.713  243.764  237.012  232.779  228.004  225.434  222.244  224.911  218.101  217.323  217.530  220.104  216.855  217.455  217.011  216.915  215.451  216.811  216.670  218.667  224.220  216.890  216.908  218.695  218.622  215.942  218.391  216.203  220.189  219.668  217.630  216.786  222.641  218.270  216.969  217.699  217.744  216.734  216.886  216.890  217.741  224.035  216.726  215.849  216.578  219.267  217.102  216.674  216.807  219.387  218.092  216.321  216.173  218.580  223.465  216.772  216.370  217.686  216.201  215.768  216.587  215.893  221.380  216.136  216.661  215.554  217.005  217.335  215.421  216.609  215.871  218.848  216.873  215.829  215.057  222.017  217.008  217.912  216.654  216.768  217.770  215.583  217.342  217.311  223.764  216.623  216.377  217.114  218.023  216.075  218.167  216.054  219.449  216.810  215.541  215.490  221.573  216.702  215.406  217.646  216.605  216.895  215.799  216.720  215.866  222.290  216.105  217.419  218.776  218.188  215.886  216.694  217.331  221.599  216.763  217.125 
DATE 2017:065:02:15:35 obsn  56 az 160 el 14 freq_MHz  1420.4000 Tsys 195.571 Tant 44.554 vlsr   23.84 glat  0.074 glon 255.118 source G255.0 
Fstart 1419.397 fstop 1421.403 spacing 0.009375 bw    2.400 fbw    2.000 MHz nfreq 256 nsam 5242880 npoint 214 integ     9 sigma    0.683 bsw 0
Spectrum      8 integration periods
 228.551  230.077  228.243  235.483  228.454  227.238  227.461  236.532  227.093  226.497  226.243  227.942  226.835  225.754  228.577  236.667  231.023  226.995  229.301  225.345  233.211  228.586  226.487  227.888  228.877  228.897  228.098  228.127  241.126  227.550  227.495  230.797  230.625  232.248  229.069  229.964  230.678  234.744  232.762  232.719  232.246  242.327  238.612  241.415  243.995  251.380  251.828  252.378  255.937  256.845  257.526  248.917  249.291  248.281  254.656  251.592  251.741  251.990  254.735  253.299  249.830  248.038  260.055  251.439  245.164  245.191  245.145  247.287  248.315  254.499  252.639  283.965  252.942  255.449  256.071  265.416  257.461  249.511  247.464  248.858  250.613  250.555  254.397  256.646  264.936  254.756  260.468  261.417  267.729  269.865  274.904  282.081  292.219  298.491  300.617  302.578  313.507  294.978  282.928  276.032  267.051  254.414  244.927  240.382  236.887  238.981  231.668  231.350  228.332  233.728  229.217  227.925  226.531  229.011  229.107  226.559  226.883  232.942  238.767  226.181  230.310  230.197  228.957  227.977  231.015  226.296  231.596  232.125  228.726  225.025  236.869  231.656  227.669  226.544  228.989  225.171  228.115  227.820  227.804  237.680  226.092  228.432  225.545  228.471  226.805  225.233  225.306  230.626  229.608  224.964  226.719  228.375  236.978  225.571  224.482  227.910  224.828  224.495  225.713  225.773  234.626  225.011  225.270  226.088  227.546  229.703  226.065  225.697  224.983  229.617  226.739  225.434  225.920  233.203  225.801  225.343  226.245  227.355  225.311  226.208  227.485  227.921  235.711  225.512  226.236  225.481  229.282  227.409  225.802  225.315  231.372  225.529  225.617  224.794  233.833  227.143  227.160  224.748  225.736  225.523  224.855  224.067  226.488  237.611  226.511  226.694  227.181  228.636  226.606  227.433  227.429  231.542  226.329  225.590 
