DATE 2017:042:01:43:19 obsn   0 az 159 el 49 freq_MHz  1420.4010 Tsys 171.000 Tant 461.047 vlsr   40.36 glat -19.187 glon 209.124 source Orion 
Fstart 1419.398 fstop 1421.404 spacing 0.009375 bw    2.400 fbw    2.000 MHz nfreq 256 nsam 5242880 npoint 214 integ     9 sigma    0.597 bsw 0
Spectrum      8 integration periods
 261.975  274.459  285.854  294.956  306.941  317.561  327.818  337.956  350.646  359.933  368.673  377.119  389.833  397.738  405.208  412.241  419.989  426.385  433.337  440.349  449.805  449.519  454.437  460.033  461.802  467.597  469.588  469.775  474.544  474.421  474.512  479.192  478.156  477.315  475.076  477.260  474.707  475.179  473.953  473.617  471.318  471.392  468.627  467.336  463.347  459.092  458.762  458.175  457.401  455.379  454.236  453.519  452.632  448.722  450.024  446.520  445.548  443.836  442.727  447.375  445.181  443.126  443.568  450.597  443.747  441.321  446.737  445.364  456.136  443.406  457.590  467.147  451.480  453.270  456.575  458.106  462.765  465.185  466.624  471.984  478.573  486.197  493.787  502.800  515.628  530.747  546.390  563.886  572.971  587.525  581.634  563.981  549.117  540.788  534.474  531.750  531.116  535.148  530.143  529.357  521.814  522.141  520.040  519.917  521.547  519.368  523.024  522.712  518.354  520.172  518.477  518.488  516.110  518.677  516.830  518.097  513.693  513.831  512.247  511.190  506.841  504.306  501.022  499.373  500.044  497.133  492.756  487.499  488.167  486.501  486.262  479.577  474.223  473.241  470.040  469.202  465.104  463.544  459.729  457.992  455.808  456.596  455.248  450.800  450.437  450.751  448.278  450.151  449.523  448.462  445.155  448.838  450.867  447.743  446.067  449.060  449.143  453.754  449.872  457.677  455.682  456.914  457.364  461.180  463.008  461.298  464.769  469.576  470.542  474.657  476.190  474.929  475.724  480.046  481.060  480.621  485.863  485.935  486.843  485.604  490.022  489.070  488.351  488.605  485.707  486.245  485.733  481.266  478.399  475.606  474.140  469.679  463.247  460.373  455.225  448.440  442.530  438.635  429.448  420.521  413.868  405.156  394.848  388.332  377.126  374.733  361.336  345.468  335.913  325.030  312.849  302.572  290.610  279.638 
DATE 2017:042:01:43:32 obsn   1 az 159 el 49 freq_MHz  1420.4010 Tsys 171.000 Tant 458.473 vlsr   40.36 glat -19.187 glon 209.124 source Orion 
Fstart 1419.398 fstop 1421.404 spacing 0.009375 bw    2.400 fbw    2.000 MHz nfreq 256 nsam 5242880 npoint 214 integ    20 sigma    0.398 bsw 0
Spectrum     18 integration periods
 262.168  274.628  285.144  294.730  307.035  318.327  328.161  338.059  350.551  359.460  368.781  378.598  388.987  396.810  405.257  412.503  421.257  427.001  432.271  439.264  446.947  450.458  454.640  459.601  463.402  466.575  469.455  469.284  473.978  475.261  475.507  477.687  477.269  476.716  476.379  476.695  477.348  474.957  474.723  472.666  471.948  469.481  468.781  467.224  463.744  459.675  459.676  457.512  456.725  455.514  453.077  453.523  451.988  446.959  449.844  447.303  445.565  444.173  443.744  444.448  443.450  442.122  443.410  448.173  443.059  441.480  444.865  443.406  456.924  446.430  459.017  463.360  450.347  453.605  456.822  458.605  462.216  463.891  467.268  472.254  476.308  484.647  491.659  500.858  514.743  531.002  547.957  561.808  572.473  584.741  578.554  562.866  549.020  540.439  534.388  529.624  529.206  531.789  528.339  526.659  521.761  521.103  521.026  519.034  519.536  519.855  521.398  520.401  519.534  520.021  519.212  518.585  517.928  519.291  517.388  516.239  513.201  512.676  510.291  510.413  507.019  503.719  499.710  498.981  497.798  496.174  491.019  488.246  488.002  485.760  484.484  478.923  474.496  474.304  469.541  467.285  466.471  463.895  459.245  459.919  456.331  457.153  455.074  451.529  450.813  450.369  448.513  450.495  449.304  447.431  446.270  447.849  450.927  448.341  447.282  447.973  449.002  452.047  450.292  454.486  454.240  455.382  457.452  460.593  462.020  461.849  463.009  468.554  467.695  472.352  472.614  474.964  475.130  478.871  480.114  480.242  483.068  484.160  485.822  485.648  488.730  488.146  486.961  486.990  486.067  483.414  482.750  481.795  477.666  473.844  473.082  467.756  463.950  459.674  455.200  446.819  442.827  437.106  427.847  420.407  412.672  403.929  394.591  387.897  376.353  372.894  361.307  345.632  335.088  323.456  313.014  301.835  290.118  279.205 
DATE 2017:042:01:43:45 obsn   2 az 159 el 49 freq_MHz  1420.4010 Tsys 171.000 Tant 457.927 vlsr   40.36 glat -19.187 glon 209.124 source Orion 
Fstart 1419.398 fstop 1421.404 spacing 0.009375 bw    2.400 fbw    2.000 MHz nfreq 256 nsam 5242880 npoint 214 integ    31 sigma    0.319 bsw 0
Spectrum     28 integration periods
 261.501  274.224  284.226  295.230  306.864  317.811  327.305  338.118  349.193  359.072  368.804  378.617  388.510  396.759  405.073  412.117  420.861  426.824  432.176  439.316  446.153  449.799  453.126  458.449  462.703  465.482  468.610  468.856  473.476  475.218  475.192  477.174  476.609  476.899  475.609  475.573  476.141  474.294  473.055  471.917  471.659  469.758  467.793  465.690  463.280  460.140  459.471  457.243  456.340  455.217  452.283  451.348  451.044  446.543  448.859  446.068  445.228  443.898  443.020  443.470  442.677  441.427  442.987  447.555  441.868  440.320  443.805  443.310  457.612  447.136  460.226  462.035  450.537  452.999  454.393  458.034  462.090  463.611  467.282  471.701  476.712  484.087  490.945  500.808  513.317  529.172  547.828  561.411  572.967  583.509  578.326  563.637  548.350  539.818  533.536  528.876  529.500  531.303  527.134  526.139  521.979  521.073  520.464  519.501  520.054  520.114  520.934  520.119  520.558  520.113  518.693  519.134  518.016  518.443  516.827  514.927  512.030  511.710  511.026  510.171  505.530  503.583  500.049  499.231  496.531  495.318  490.105  488.546  487.419  484.927  484.025  477.785  474.987  473.452  468.818  466.940  466.676  463.136  459.458  459.122  457.302  455.772  454.339  451.398  450.959  450.579  448.740  449.161  448.971  447.439  446.980  447.550  451.695  446.850  447.347  448.005  448.994  451.356  449.437  454.255  454.154  455.472  456.595  459.686  462.056  461.748  462.478  466.904  467.586  470.860  472.015  473.415  474.573  478.154  480.445  480.348  482.837  483.602  485.088  484.397  487.791  486.103  487.064  486.216  484.762  482.600  481.459  481.320  477.992  474.326  471.549  467.719  464.206  459.240  455.131  447.022  442.180  436.251  427.865  419.931  412.033  404.183  394.248  388.197  376.322  372.070  360.741  345.415  334.544  323.847  313.115  301.562  289.983  278.319 
DATE 2017:042:01:43:58 obsn   3 az 159 el 49 freq_MHz  1420.4010 Tsys 171.000 Tant 458.218 vlsr   40.36 glat -19.187 glon 209.124 source Orion 
Fstart 1419.398 fstop 1421.404 spacing 0.009375 bw    2.400 fbw    2.000 MHz nfreq 256 nsam 5242880 npoint 214 integ    42 sigma    0.274 bsw 0
Spectrum     38 integration periods
 261.356  274.022  283.850  295.020  306.062  316.807  327.419  337.522  348.004  358.255  367.984  377.814  387.989  396.733  404.323  412.486  419.635  426.553  432.154  439.278  444.968  448.264  452.760  457.926  461.759  464.728  467.739  469.095  472.617  474.483  473.861  476.076  475.346  475.911  475.146  474.313  475.227  473.173  472.264  472.104  471.084  468.631  467.714  465.489  462.616  460.234  459.211  456.332  455.817  453.953  452.218  450.829  449.808  446.384  448.726  445.813  445.457  443.305  442.629  443.208  441.436  440.656  442.471  446.860  441.623  440.417  443.620  443.542  457.032  447.994  460.588  462.327  450.234  452.250  454.243  457.812  461.976  462.614  466.091  471.572  476.594  483.941  490.849  500.369  513.460  529.193  547.443  561.571  572.874  583.375  577.472  562.783  549.377  539.971  532.723  528.006  528.889  531.057  526.892  525.947  521.617  520.847  520.343  518.762  519.135  519.630  520.112  519.769  520.293  519.141  518.976  518.979  517.988  518.438  517.314  514.719  512.546  511.359  510.772  509.200  505.438  503.152  500.878  498.908  496.171  495.147  491.008  488.737  486.963  485.415  483.413  476.822  474.547  473.796  468.667  467.327  465.831  462.802  459.673  458.907  457.814  455.500  454.172  451.926  450.441  450.073  449.125  448.634  448.820  447.453  446.981  446.833  451.447  446.453  447.093  448.755  448.917  450.597  450.311  452.893  454.200  455.676  456.550  459.787  460.539  461.568  462.186  466.618  467.357  470.317  471.617  472.997  474.027  478.397  480.414  480.067  482.430  483.646  484.564  484.783  486.785  485.469  486.586  485.543  483.887  483.854  481.058  479.491  476.780  473.924  471.645  467.635  463.787  459.394  455.093  447.422  441.521  435.550  427.409  419.731  411.917  404.088  393.892  387.533  376.420  372.168  360.133  345.034  334.741  323.379  312.533  301.005  289.689  278.386 
DATE 2017:042:01:44:11 obsn   4 az 159 el 49 freq_MHz  1420.4010 Tsys 171.000 Tant 458.119 vlsr   40.36 glat -19.187 glon 209.124 source Orion 
Fstart 1419.398 fstop 1421.404 spacing 0.009375 bw    2.400 fbw    2.000 MHz nfreq 256 nsam 5242880 npoint 214 integ    52 sigma    0.244 bsw 0
Spectrum     48 integration periods
 261.293  273.568  283.302  294.732  305.809  316.443  327.328  337.370  347.810  358.400  367.416  377.520  387.285  396.203  403.712  411.863  419.355  426.122  431.558  438.950  443.555  448.220  452.518  457.235  460.833  464.653  467.089  468.505  472.536  474.422  474.048  475.421  475.027  475.098  475.090  473.701  474.532  472.068  471.762  471.069  470.739  468.279  466.817  464.346  461.838  460.031  458.641  455.803  455.180  453.814  452.055  450.562  449.769  446.477  448.263  445.531  445.227  443.114  442.164  442.971  441.521  440.632  441.731  446.375  441.499  440.145  443.697  443.782  457.190  447.704  459.726  462.147  450.412  451.407  454.097  457.740  462.203  462.698  466.639  470.989  476.166  483.486  490.542  500.136  513.179  528.985  547.244  560.742  572.730  582.634  576.219  562.706  549.435  539.231  532.354  527.621  528.563  530.527  526.398  525.441  521.132  520.566  519.191  518.724  519.158  519.657  519.527  519.394  519.752  518.777  518.941  518.859  517.048  517.867  516.539  514.271  512.427  511.724  510.145  508.989  505.488  503.265  500.247  498.326  496.155  494.412  491.182  487.679  486.252  485.416  482.824  476.728  474.213  473.358  468.772  466.839  465.359  462.493  460.210  458.955  457.407  455.318  453.239  451.892  450.080  449.960  448.980  448.653  448.006  446.909  446.030  446.675  451.236  446.489  446.909  448.810  448.550  449.759  449.989  452.520  453.686  455.435  455.970  459.080  460.116  461.110  462.406  466.181  467.268  470.162  471.146  472.932  474.277  477.973  480.301  480.062  482.560  483.506  484.035  484.499  486.190  485.148  485.703  485.153  483.985  483.762  481.087  478.139  476.181  473.183  470.690  467.402  463.308  458.788  454.914  446.872  440.217  435.163  427.409  419.051  411.605  403.516  393.814  386.912  376.034  372.424  360.164  344.944  334.652  322.940  312.543  300.788  289.427  278.242 
DATE 2017:042:01:44:24 obsn   5 az 159 el 49 freq_MHz  1420.4010 Tsys 171.000 Tant 459.225 vlsr   40.37 glat -19.187 glon 209.124 source Orion 
Fstart 1419.398 fstop 1421.404 spacing 0.009375 bw    2.400 fbw    2.000 MHz nfreq 256 nsam 5242880 npoint 214 integ    63 sigma    0.222 bsw 0
Spectrum     58 integration periods
 261.116  273.534  282.876  294.684  305.684  316.440  327.370  337.099  347.577  358.286  367.629  377.127  386.973  395.914  403.610  411.742  418.769  425.714  431.945  438.641  443.085  447.684  452.565  457.130  460.766  463.885  467.315  468.401  472.172  473.649  474.245  475.647  474.769  474.799  474.790  473.518  474.264  472.358  472.230  471.180  470.912  468.378  466.953  464.648  462.070  460.014  458.761  456.075  455.398  453.426  451.708  450.321  449.705  446.612  448.100  445.389  445.040  443.173  442.228  442.690  441.112  440.430  441.430  445.915  441.294  440.475  443.276  443.687  457.346  447.800  460.105  461.499  450.285  451.779  454.182  457.398  461.677  462.623  466.147  471.137  476.441  483.126  490.492  500.225  513.523  528.955  547.069  560.755  573.075  582.922  576.553  562.867  549.712  539.140  532.922  527.643  528.871  530.421  526.440  525.401  521.607  520.357  518.760  518.986  519.278  519.539  519.779  519.537  519.935  518.889  519.131  519.255  517.279  518.018  516.475  514.238  512.987  512.119  510.201  508.311  505.047  503.409  500.559  498.373  496.107  494.338  490.723  488.223  485.620  485.709  482.419  476.996  474.443  473.342  469.433  467.039  465.230  462.815  460.347  458.823  457.581  455.880  453.613  451.483  449.903  449.759  449.181  448.378  447.778  446.831  446.091  446.618  451.588  446.281  446.836  448.623  448.558  449.551  450.205  452.421  453.750  455.388  456.313  459.154  460.011  461.265  462.482  465.955  466.920  470.280  471.309  473.106  474.441  477.483  480.016  479.954  482.667  483.448  483.752  484.233  485.761  485.297  485.410  485.208  483.756  483.674  480.827  478.895  476.573  472.976  470.326  467.450  462.868  459.161  454.827  446.864  439.926  434.763  427.722  419.123  411.655  403.602  393.707  386.606  375.964  372.384  360.169  345.325  334.728  322.935  312.309  300.989  289.413  278.543 
DATE 2017:042:01:44:37 obsn   6 az 159 el 49 freq_MHz  1420.4010 Tsys 171.000 Tant 461.240 vlsr   40.37 glat -19.187 glon 209.124 source Orion 
Fstart 1419.398 fstop 1421.404 spacing 0.009375 bw    2.400 fbw    2.000 MHz nfreq 256 nsam 5242880 npoint 214 integ    74 sigma    0.205 bsw 0
Spectrum     68 integration periods
 261.215  273.546  283.002  294.780  305.645  316.381  327.295  337.153  347.596  358.092  367.684  377.111  387.135  395.724  403.545  411.518  418.776  425.684  431.614  438.253  443.196  447.806  452.864  457.444  460.523  463.445  467.229  468.320  472.669  473.846  474.242  475.473  474.680  474.791  474.253  473.639  474.272  472.463  471.885  471.141  470.675  468.264  466.812  464.699  462.396  459.894  458.540  456.074  455.245  453.875  451.616  450.017  449.313  446.823  448.231  445.242  444.919  443.405  442.314  442.393  440.701  440.338  441.512  446.290  441.220  440.565  442.698  443.561  457.154  447.883  460.493  461.111  449.686  451.776  454.000  457.703  461.423  462.973  466.241  471.231  476.333  483.146  490.715  500.633  513.059  529.397  547.152  561.113  573.448  583.272  576.374  563.052  549.943  539.190  532.853  528.171  529.419  530.614  526.664  525.679  521.854  520.565  519.091  519.201  519.139  519.669  519.735  519.752  520.100  519.179  519.187  519.193  517.558  517.766  516.770  514.830  512.991  512.169  509.877  508.199  505.306  503.494  500.681  498.101  495.655  494.078  491.020  488.358  486.068  485.394  482.597  477.127  474.731  473.442  469.854  467.262  465.328  463.105  460.352  458.912  457.485  455.787  453.668  451.611  449.830  449.830  448.962  448.217  448.082  446.826  446.252  446.641  451.628  446.151  446.922  448.998  448.564  449.693  450.053  451.892  453.718  455.413  456.412  458.901  459.560  461.596  463.084  465.952  467.216  470.052  471.342  473.027  474.676  477.403  479.656  479.951  482.803  483.234  483.757  483.929  485.807  485.600  485.412  485.084  483.421  483.657  480.575  478.972  476.955  473.184  470.603  467.826  462.960  459.413  454.499  447.012  440.074  434.795  427.807  419.613  411.870  403.544  393.826  386.221  375.747  372.335  359.886  345.270  334.712  322.918  312.042  300.661  289.229  278.799 
DATE 2017:042:01:44:51 obsn   7 az 159 el 49 freq_MHz  1420.4010 Tsys 171.000 Tant 460.878 vlsr   40.37 glat -19.187 glon 209.124 source Orion 
Fstart 1419.398 fstop 1421.404 spacing 0.009375 bw    2.400 fbw    2.000 MHz nfreq 256 nsam 5242880 npoint 214 integ    85 sigma    0.191 bsw 0
Spectrum     78 integration periods
 261.237  273.647  283.138  294.714  305.728  316.341  327.383  337.236  348.034  357.815  367.805  377.287  387.110  395.737  403.538  411.480  418.521  425.659  431.440  438.084  443.372  447.861  452.895  457.530  460.619  463.702  467.172  468.333  472.832  473.720  474.345  475.240  474.704  474.970  474.242  473.363  474.149  472.498  471.700  471.153  470.407  468.312  466.666  464.485  462.664  460.126  458.638  456.194  455.392  454.437  452.174  450.209  449.570  447.306  448.095  445.217  444.883  443.674  442.436  442.407  440.805  440.573  441.387  446.356  441.660  440.848  442.902  443.583  457.201  447.532  460.842  461.119  449.763  451.867  454.033  457.754  461.138  463.252  466.247  471.360  476.546  483.179  490.549  500.578  513.044  529.324  547.381  561.188  573.713  583.641  576.588  562.955  550.053  539.251  532.732  528.191  528.905  530.311  526.717  525.517  521.327  520.244  519.227  519.145  519.152  519.868  519.948  519.440  520.247  519.516  519.171  519.605  517.762  517.841  516.429  514.866  513.423  511.988  509.851  508.369  505.554  503.538  500.637  498.391  495.885  494.228  491.285  488.273  486.190  485.598  482.737  477.291  474.678  473.132  470.061  467.285  465.570  463.145  460.327  458.616  457.475  455.479  453.729  451.810  449.827  449.708  448.964  448.122  447.500  446.991  446.189  446.638  451.535  446.198  446.866  449.101  448.733  449.771  450.026  451.654  453.772  455.296  456.313  458.772  459.388  461.714  463.314  465.870  467.291  470.211  471.453  473.351  474.686  477.266  479.758  480.350  483.048  483.105  483.883  484.284  485.910  485.541  485.548  484.989  483.562  483.681  481.091  479.191  476.928  473.273  470.769  467.894  462.842  459.217  454.394  447.101  439.957  434.905  427.743  419.475  411.849  403.336  393.623  386.242  375.976  372.238  359.935  345.288  334.635  322.509  312.190  300.813  289.271  278.728 
DATE 2017:042:01:45:04 obsn   8 az 159 el 49 freq_MHz  1420.4010 Tsys 171.000 Tant 462.302 vlsr   40.37 glat -19.187 glon 209.124 source Orion 
Fstart 1419.398 fstop 1421.404 spacing 0.009375 bw    2.400 fbw    2.000 MHz nfreq 256 nsam 5242880 npoint 214 integ    96 sigma    0.180 bsw 0
Spectrum     88 integration periods
 261.296  273.630  283.048  294.723  305.789  316.304  327.333  337.469  348.301  357.881  367.994  377.564  387.125  395.791  403.444  411.634  418.610  425.912  431.634  438.181  443.538  448.282  453.157  457.654  460.673  463.407  466.946  468.458  472.879  473.841  474.326  475.444  474.721  475.070  474.246  473.545  474.156  472.541  471.765  471.338  470.464  468.467  466.769  464.788  462.703  460.221  458.845  456.458  455.950  454.763  452.500  450.411  449.635  447.830  448.334  445.411  444.999  443.637  442.689  442.162  440.815  440.783  441.662  446.264  441.728  441.092  443.141  444.011  457.693  447.329  460.748  461.315  450.088  452.267  454.116  457.944  461.396  463.108  466.418  471.575  476.557  483.256  490.778  500.751  513.278  529.485  547.565  561.345  574.076  584.243  577.182  563.256  550.501  539.464  533.010  528.510  529.075  530.311  526.758  525.691  521.504  520.517  519.455  519.702  519.303  520.031  520.114  519.630  520.424  519.432  519.679  519.824  518.054  518.229  516.698  515.382  513.343  512.145  510.287  508.484  505.768  503.636  500.795  498.736  496.106  494.549  491.398  488.582  486.307  485.656  483.121  477.451  474.905  473.282  470.432  467.564  465.559  463.243  460.462  458.998  457.334  455.466  453.731  451.791  449.675  449.647  449.267  448.088  447.563  447.260  446.158  446.590  451.722  446.276  447.008  449.270  448.983  450.083  450.428  452.021  453.976  455.354  456.406  458.562  459.530  462.008  463.525  465.986  467.283  470.202  471.658  473.784  475.012  477.361  479.878  480.455  482.920  483.300  483.992  484.460  486.004  485.949  485.666  485.066  483.706  483.833  481.346  479.504  477.125  473.387  470.901  467.899  462.917  459.314  454.334  447.310  440.246  434.689  427.733  419.491  411.968  403.499  393.853  386.143  375.938  372.322  360.137  345.388  334.756  322.614  312.379  301.173  289.434  278.818 
DATE 2017:042:01:45:17 obsn   9 az 159 el 49 freq_MHz  1420.4010 Tsys 171.000 Tant 459.081 vlsr   40.37 glat -19.187 glon 209.124 source Orion 
Fstart 1419.398 fstop 1421.404 spacing 0.009375 bw    2.400 fbw    2.000 MHz nfreq 256 nsam 5242880 npoint 214 integ   107 sigma    0.171 bsw 0
Spectrum     98 integration periods
 261.524  273.725  283.279  294.892  305.749  316.458  327.433  337.636  348.570  357.944  368.056  377.679  387.042  395.694  403.534  411.701  418.591  426.259  431.882  438.445  443.763  448.729  453.319  457.739  460.934  463.484  466.862  468.860  472.775  474.108  474.152  475.524  474.995  475.120  474.562  473.959  474.251  472.846  471.645  471.349  470.412  468.721  466.915  464.966  462.925  460.411  459.052  456.899  455.920  454.842  452.419  450.501  449.737  448.097  448.647  445.664  445.053  443.786  442.954  442.433  441.097  441.108  441.915  446.569  441.877  441.214  443.500  444.215  457.973  447.122  460.518  461.295  450.104  452.460  454.316  458.056  461.331  463.288  466.304  471.595  476.679  483.288  491.056  501.053  513.479  529.660  547.808  562.058  574.387  584.953  577.759  563.489  550.689  539.934  533.390  528.385  528.770  530.496  526.724  525.485  521.624  520.906  520.004  520.100  519.556  520.039  520.215  519.981  520.388  519.536  520.131  519.989  518.432  518.423  516.765  515.305  513.554  512.053  510.496  508.586  505.781  503.837  501.302  498.839  495.920  494.604  491.688  488.900  486.529  485.389  483.343  477.784  474.956  473.563  470.918  467.816  466.030  463.589  460.610  459.214  457.625  455.575  453.766  451.663  449.767  449.802  449.283  448.408  447.650  447.339  446.158  446.716  451.665  446.460  447.145  449.312  449.363  450.077  450.659  452.308  454.190  455.494  456.597  458.899  459.858  462.322  463.939  466.127  467.553  470.511  471.721  473.961  475.348  477.832  480.075  480.685  483.101  483.403  484.177  484.682  486.293  485.930  485.881  485.375  483.995  484.124  481.573  479.526  477.777  474.015  470.910  468.068  463.134  459.577  454.658  447.654  440.571  434.819  427.978  419.732  412.185  403.593  394.117  386.353  376.047  372.326  360.097  345.533  334.929  322.704  312.549  301.290  289.804  279.023 
DATE 2017:042:01:45:30 obsn  10 az 159 el 49 freq_MHz  1420.4010 Tsys 171.000 Tant 458.141 vlsr   40.37 glat -19.187 glon 209.124 source Orion 
Fstart 1419.398 fstop 1421.404 spacing 0.009375 bw    2.400 fbw    2.000 MHz nfreq 256 nsam 5242880 npoint 214 integ   118 sigma    0.163 bsw 0
Spectrum    108 integration periods
 261.507  273.796  283.207  294.974  305.958  316.417  327.445  337.874  348.505  357.831  368.065  377.631  386.930  395.777  403.687  411.951  418.681  426.295  432.195  438.484  443.916  448.918  453.725  457.975  460.910  463.643  467.354  468.921  472.536  474.135  474.125  475.557  474.962  475.237  474.387  473.962  474.475  473.212  471.988  471.486  470.514  468.944  466.970  464.942  463.311  460.462  459.114  457.032  455.965  454.674  452.552  450.559  449.605  448.193  448.561  445.710  445.103  443.832  442.910  442.322  441.051  441.059  441.981  446.618  441.940  441.139  443.267  444.173  457.949  446.852  461.565  461.373  450.381  452.756  454.498  458.206  461.358  463.309  466.494  471.729  476.681  483.380  491.276  500.984  513.796  529.768  547.913  562.485  574.845  586.032  578.267  564.099  551.130  539.949  533.373  528.498  528.854  530.803  526.904  525.492  521.870  521.019  520.058  520.316  519.629  520.284  520.235  519.930  520.815  519.406  520.132  520.076  518.751  518.379  516.872  515.405  513.621  511.918  510.589  508.652  505.957  503.949  501.154  498.989  496.118  494.710  492.092  489.204  486.724  485.351  483.419  477.904  475.026  473.750  471.243  467.871  465.949  463.696  460.864  459.246  457.947  455.501  453.589  451.925  449.984  449.733  449.235  448.342  447.561  447.372  446.318  446.947  451.963  446.467  447.260  449.405  449.487  450.328  450.827  452.655  454.038  455.548  456.743  459.036  460.097  462.350  463.996  466.104  467.657  470.720  471.852  474.105  475.401  478.000  480.097  480.734  483.012  483.543  484.494  485.015  486.524  485.905  486.111  485.661  484.152  484.276  481.597  479.755  477.551  474.107  471.021  468.155  463.136  459.717  454.651  447.808  440.914  434.782  428.126  420.014  412.482  403.799  394.288  386.354  375.745  372.478  360.317  345.506  334.847  322.815  312.606  301.404  289.722  279.025 
DATE 2017:042:01:45:51 obsn  11 az 160 el 49 freq_MHz  1420.4010 Tsys 171.000 Tant 456.808 vlsr   40.37 glat -19.187 glon 209.124 source Orion 
Fstart 1419.398 fstop 1421.404 spacing 0.009375 bw    2.400 fbw    2.000 MHz nfreq 256 nsam 5242880 npoint 214 integ   129 sigma    0.156 bsw 0
Spectrum    118 integration periods
 261.351  273.535  282.968  294.832  305.901  316.262  327.239  337.841  348.373  357.625  367.809  377.367  386.615  395.481  403.565  411.797  418.355  426.049  432.251  438.407  443.622  448.497  453.481  457.754  460.909  463.535  467.076  468.805  472.394  473.911  473.893  475.130  474.678  474.966  474.113  473.683  474.071  473.068  471.590  471.266  470.002  468.706  466.762  464.611  463.119  460.276  458.848  456.741  455.612  454.353  452.373  450.503  449.453  447.949  448.331  445.528  444.793  443.510  442.706  442.208  440.939  440.866  441.713  446.379  441.889  440.862  442.830  444.013  457.763  446.772  461.685  460.999  450.133  452.323  454.325  458.132  461.209  463.120  466.578  471.530  476.548  483.313  491.117  500.803  513.547  529.288  547.662  562.318  574.431  585.448  577.887  563.626  550.737  539.440  532.883  528.095  528.652  530.515  526.750  525.266  521.632  520.752  519.633  520.096  519.462  520.038  519.859  519.557  520.386  519.238  519.661  519.973  518.549  518.142  516.723  514.997  513.419  511.895  510.523  508.289  505.737  503.563  500.934  499.102  495.873  494.407  491.794  488.891  486.502  485.065  483.422  477.727  475.128  473.533  471.011  467.621  465.929  463.709  460.678  459.227  457.781  455.295  453.410  451.687  449.875  449.608  449.120  448.179  447.480  446.874  446.171  446.635  451.619  446.327  447.205  449.242  449.275  449.972  450.241  452.463  453.949  455.294  456.701  458.754  459.892  462.310  463.846  465.903  467.442  470.744  471.675  473.878  475.104  477.905  479.950  480.574  482.597  483.354  484.394  484.940  486.585  485.574  485.704  485.484  484.149  484.079  481.634  479.607  477.426  473.908  470.992  467.967  463.209  459.574  454.323  447.806  440.985  434.722  427.891  419.785  412.255  403.673  394.124  386.158  375.669  372.335  360.122  345.307  334.672  322.640  312.469  301.219  289.559  278.795 
DATE 2017:042:01:46:04 obsn  12 az 160 el 49 freq_MHz  1420.4010 Tsys 171.000 Tant 455.077 vlsr   40.37 glat -19.187 glon 209.124 source Orion 
Fstart 1419.398 fstop 1421.404 spacing 0.009375 bw    2.400 fbw    2.000 MHz nfreq 256 nsam 5242880 npoint 214 integ   140 sigma    0.149 bsw 0
Spectrum    128 integration periods
 261.271  273.293  282.799  294.626  305.651  316.230  327.096  337.596  348.193  357.356  367.630  377.149  386.198  395.102  403.357  411.551  418.128  425.692  431.853  438.125  443.328  448.382  453.218  457.415  460.483  463.162  466.693  468.726  472.391  473.644  473.763  474.872  474.349  474.847  473.931  473.578  473.949  472.798  471.436  471.003  469.851  468.488  466.289  464.408  462.755  460.123  458.550  456.598  455.426  453.974  452.087  450.273  449.246  447.520  448.155  445.512  444.446  443.142  442.438  441.830  440.660  440.491  441.523  446.218  441.521  440.717  442.473  443.908  457.743  446.688  462.137  460.504  449.877  451.998  454.155  457.781  460.881  462.936  466.344  471.152  476.322  483.146  490.930  500.698  513.580  529.264  547.253  561.879  574.048  584.955  577.383  563.094  550.304  538.954  532.547  527.976  528.207  530.236  526.842  524.942  521.498  520.458  519.344  519.881  519.080  519.864  519.665  519.229  520.108  518.881  519.131  519.567  518.214  517.731  516.391  514.638  513.009  511.576  510.317  507.993  505.459  503.280  500.767  498.920  495.608  493.959  491.687  488.531  486.050  484.761  483.320  477.599  475.006  473.490  470.815  467.543  465.659  463.545  460.670  458.999  457.460  455.230  453.198  451.434  449.787  449.440  448.897  448.145  447.287  446.704  446.076  446.523  451.434  446.063  446.882  449.222  449.257  449.863  450.260  452.395  453.861  454.990  456.605  458.513  459.800  461.958  463.749  465.729  467.383  470.300  471.250  473.766  474.900  477.628  479.624  480.315  482.283  483.169  484.110  484.709  486.336  485.394  485.583  485.197  484.030  483.610  481.386  479.281  477.254  473.832  470.798  467.565  463.021  459.349  454.283  447.722  440.918  434.567  427.643  419.639  412.116  403.700  393.960  385.954  375.594  372.018  359.775  345.310  334.667  322.662  312.350  301.005  289.457  278.643 
DATE 2017:042:01:46:18 obsn  13 az 160 el 49 freq_MHz  1420.4010 Tsys 171.000 Tant 455.946 vlsr   40.37 glat -19.187 glon 209.124 source Orion 
Fstart 1419.398 fstop 1421.404 spacing 0.009375 bw    2.400 fbw    2.000 MHz nfreq 256 nsam 5242880 npoint 214 integ   151 sigma    0.144 bsw 0
Spectrum    138 integration periods
 261.153  273.209  282.678  294.462  305.439  316.073  326.916  337.305  347.968  357.311  367.465  376.907  386.012  394.953  403.028  411.308  418.046  425.424  431.583  437.775  443.291  448.130  453.054  457.355  460.424  462.974  466.480  468.327  471.943  473.337  473.258  474.580  474.279  474.654  473.946  473.191  473.646  472.610  471.371  470.554  469.621  468.193  466.168  464.007  462.513  459.895  458.391  456.357  455.072  453.557  451.805  450.149  448.882  447.192  447.699  445.271  444.186  443.074  442.243  441.652  440.325  440.262  441.109  446.257  441.223  440.674  442.157  443.607  457.261  446.443  461.616  460.037  449.544  451.653  453.868  457.581  460.694  462.809  466.024  470.855  476.046  482.802  490.783  500.523  513.451  529.066  546.816  561.592  573.794  584.412  576.873  562.819  549.988  538.779  532.269  527.733  527.911  529.935  526.800  524.573  521.148  520.298  519.187  519.282  518.903  519.626  519.184  518.939  519.969  518.720  518.773  519.220  517.983  517.474  516.247  514.270  512.962  511.062  510.109  507.779  505.417  503.236  500.571  498.802  495.405  493.726  491.328  488.481  486.131  484.608  483.125  477.498  474.937  473.412  470.579  467.336  465.402  463.444  460.439  458.733  457.253  455.085  452.945  451.320  449.759  449.202  448.526  447.783  447.247  446.394  445.981  446.276  451.054  445.869  446.643  449.100  449.001  449.695  450.038  452.020  453.664  454.926  456.172  458.337  459.793  461.650  463.462  465.447  467.211  469.975  471.057  473.627  474.732  477.524  479.448  480.046  481.895  483.152  483.778  484.716  486.094  485.277  485.245  484.801  483.913  483.295  481.117  479.032  476.935  473.681  470.556  467.115  462.816  459.086  454.072  447.298  440.664  434.570  427.380  419.544  411.846  403.456  393.682  385.626  375.405  371.745  359.533  345.018  334.458  322.557  312.136  300.804  289.231  278.433 
DATE 2017:042:01:46:31 obsn  14 az 160 el 49 freq_MHz  1420.4010 Tsys 171.000 Tant 457.952 vlsr   40.37 glat -19.187 glon 209.124 source Orion 
Fstart 1419.398 fstop 1421.404 spacing 0.009375 bw    2.400 fbw    2.000 MHz nfreq 256 nsam 5242880 npoint 214 integ   162 sigma    0.139 bsw 0
Spectrum    148 integration periods
 261.063  273.163  282.536  294.435  305.416  315.991  326.993  337.376  347.928  357.409  367.471  376.862  385.956  395.023  402.947  411.194  417.948  425.417  431.499  437.820  443.213  447.948  453.080  457.320  460.401  463.000  466.252  468.179  471.649  473.165  473.181  474.378  474.218  474.590  473.780  473.260  473.432  472.347  471.283  470.371  469.454  467.960  466.110  463.929  462.340  459.650  458.313  456.157  454.894  453.491  451.868  450.042  448.795  447.260  447.441  445.118  444.174  443.113  442.233  441.732  440.248  440.360  441.037  446.272  441.081  440.624  442.143  443.525  457.124  446.520  461.776  459.867  449.726  451.536  453.729  457.610  460.592  462.723  466.150  470.869  476.077  482.602  490.776  500.410  513.440  528.946  546.587  561.263  573.679  584.311  576.594  562.454  549.925  538.750  532.077  527.607  527.793  529.639  526.787  524.258  521.092  519.988  519.190  518.959  518.725  519.543  519.182  518.945  519.688  518.752  518.663  519.268  518.045  517.535  516.359  514.208  512.768  511.253  510.133  507.637  505.337  503.302  500.463  498.578  495.297  493.461  491.111  488.499  486.021  484.732  483.097  477.358  474.927  473.369  470.628  467.362  465.459  463.350  460.431  458.717  457.134  454.991  452.772  451.208  449.768  449.259  448.335  447.786  447.310  446.234  445.935  446.249  451.014  445.886  446.533  448.857  448.739  449.510  450.047  451.884  453.592  454.857  456.000  458.357  459.895  461.637  463.437  465.302  467.253  469.946  470.965  473.474  474.704  477.538  479.200  479.869  481.930  483.107  483.675  484.763  486.014  485.323  485.383  484.705  483.906  483.451  481.238  479.037  476.880  473.715  470.443  467.045  462.552  458.799  453.853  447.255  440.546  434.524  427.341  419.464  411.785  403.119  393.720  385.538  375.336  371.493  359.448  344.946  334.362  322.686  312.088  300.697  289.214  278.329 
DATE 2017:042:01:46:44 obsn  15 az 160 el 49 freq_MHz  1420.4010 Tsys 171.000 Tant 457.122 vlsr   40.37 glat -19.187 glon 209.124 source Orion 
Fstart 1419.398 fstop 1421.404 spacing 0.009375 bw    2.400 fbw    2.000 MHz nfreq 256 nsam 5242880 npoint 214 integ   173 sigma    0.134 bsw 0
Spectrum    158 integration periods
 260.872  273.217  282.532  294.323  305.430  315.898  326.865  337.426  348.037  357.430  367.444  376.825  385.876  394.979  402.977  411.220  417.916  425.276  431.414  437.701  443.088  447.870  452.984  457.390  460.391  462.980  466.123  468.284  471.627  473.010  473.213  474.321  474.122  474.387  473.690  472.997  473.363  472.322  471.166  470.178  469.371  468.041  465.959  463.797  462.283  459.426  458.045  456.139  454.855  453.289  451.687  449.912  448.579  447.085  447.334  445.282  444.065  443.265  442.220  441.738  440.413  440.197  440.751  446.200  440.906  440.696  442.182  443.436  457.022  446.271  461.540  459.860  449.650  451.472  453.643  457.717  460.586  462.743  466.037  470.849  476.150  482.527  490.751  500.370  513.346  528.736  546.389  561.099  573.494  584.050  576.550  562.344  550.009  538.666  531.948  527.485  527.794  529.343  526.650  523.987  520.920  519.784  519.015  518.953  518.691  519.544  519.101  518.869  519.658  518.732  518.669  519.176  517.836  517.354  516.187  514.272  512.826  511.280  510.019  507.613  505.439  503.497  500.382  498.488  495.456  493.467  491.114  488.368  485.838  484.600  482.852  477.311  474.475  473.329  470.529  467.444  465.459  463.415  460.341  458.711  457.016  455.061  452.720  451.195  449.752  449.233  448.307  447.618  447.148  445.941  445.746  446.084  450.965  445.889  446.420  448.783  448.618  449.397  450.012  451.724  453.421  454.575  455.982  458.179  459.724  461.760  463.482  465.451  467.064  469.786  471.028  473.547  474.760  477.573  479.180  479.796  481.737  483.089  483.610  484.691  485.885  485.188  485.496  484.782  484.080  483.459  481.319  479.323  476.897  473.754  470.238  466.907  462.569  458.615  453.799  447.187  440.271  434.364  427.270  419.610  411.605  403.052  393.712  385.356  375.206  371.317  359.187  344.893  334.376  322.677  311.983  300.721  289.133  278.174 
DATE 2017:042:01:46:57 obsn  16 az 160 el 49 freq_MHz  1420.4010 Tsys 171.000 Tant 457.168 vlsr   40.37 glat -19.187 glon 209.124 source Orion 
Fstart 1419.398 fstop 1421.404 spacing 0.009375 bw    2.400 fbw    2.000 MHz nfreq 256 nsam 5242880 npoint 214 integ   184 sigma    0.130 bsw 0
Spectrum    168 integration periods
 260.743  273.073  282.650  294.255  305.434  315.904  326.926  337.456  348.008  357.390  367.428  376.804  385.825  394.889  402.894  411.154  417.870  425.365  431.291  437.739  443.006  447.766  452.933  457.307  460.324  462.974  466.206  468.209  471.550  472.839  473.066  474.221  474.079  474.241  473.679  472.953  473.339  472.276  471.011  470.001  469.285  467.954  465.786  463.669  461.976  459.238  457.928  456.137  454.763  453.217  451.807  449.899  448.438  447.025  447.135  445.245  444.129  443.167  442.232  441.716  440.514  440.248  440.685  446.289  440.803  440.591  442.186  443.262  456.951  446.309  461.692  459.769  449.561  451.526  453.671  457.710  460.424  462.831  466.114  470.908  476.138  482.502  490.575  500.382  513.080  528.707  546.450  561.047  573.352  584.061  576.395  562.574  549.831  538.606  531.848  527.396  527.845  529.136  526.580  523.957  520.911  519.647  518.968  518.723  518.713  519.280  519.004  519.021  519.635  518.659  518.727  519.039  517.707  517.542  516.055  514.353  512.871  511.244  510.123  507.555  505.466  503.443  500.266  498.513  495.465  493.363  491.114  488.300  485.791  484.463  482.732  477.156  474.293  473.272  470.494  467.398  465.365  463.283  460.247  458.726  456.914  454.911  452.660  451.169  449.746  449.153  448.317  447.648  447.052  445.948  445.642  445.825  450.757  445.785  446.379  448.624  448.516  449.504  449.940  451.586  453.337  454.656  456.003  457.994  459.747  461.617  463.228  465.268  467.036  469.670  470.787  473.547  474.759  477.588  479.097  479.778  481.691  482.991  483.679  484.737  485.973  485.129  485.494  484.828  484.173  483.395  481.232  479.193  476.849  473.668  470.222  466.829  462.503  458.551  453.678  447.074  440.167  434.327  427.248  419.516  411.555  402.963  393.714  385.215  375.231  371.206  359.025  344.913  334.151  322.611  311.950  300.758  289.105  278.058 
DATE 2017:042:01:47:18 obsn  17 az 160 el 50 freq_MHz  1420.4010 Tsys 171.000 Tant 457.303 vlsr   40.37 glat -19.187 glon 209.124 source Orion 
Fstart 1419.398 fstop 1421.404 spacing 0.009375 bw    2.400 fbw    2.000 MHz nfreq 256 nsam 5242880 npoint 214 integ   194 sigma    0.127 bsw 0
Spectrum    178 integration periods
 260.720  272.995  282.564  294.264  305.388  315.759  326.734  337.384  348.017  357.299  367.355  376.785  385.817  394.904  402.830  411.138  417.933  425.336  431.025  437.667  443.013  447.670  452.741  457.227  460.311  462.963  465.931  468.119  471.418  472.570  472.841  474.090  474.029  474.091  473.648  472.936  473.258  472.196  470.928  469.984  469.128  467.934  465.526  463.645  461.853  459.126  457.895  456.019  454.773  453.234  451.705  449.860  448.359  446.922  447.112  445.068  443.954  443.181  442.060  441.574  440.332  440.197  440.670  446.203  440.773  440.519  442.243  443.152  456.612  446.010  461.451  459.540  449.503  451.385  453.477  457.585  460.325  462.838  466.031  470.758  476.072  482.385  490.562  500.352  513.136  528.735  546.534  560.946  573.212  583.825  576.242  562.317  549.613  538.493  531.686  527.434  527.846  529.148  526.659  523.896  520.843  519.490  518.778  518.723  518.586  519.159  518.949  518.976  519.436  518.461  518.602  518.873  517.539  517.479  515.935  514.227  512.850  511.135  510.120  507.534  505.242  503.431  500.259  498.399  495.370  493.275  491.130  488.213  485.539  484.267  482.722  477.033  474.233  473.148  470.360  467.321  465.342  463.199  460.226  458.786  456.778  454.827  452.583  451.045  449.709  449.054  448.294  447.646  447.103  445.709  445.609  445.720  450.675  445.600  446.139  448.665  448.563  449.433  449.862  451.518  453.422  454.595  455.914  457.891  459.729  461.730  463.294  465.259  467.075  469.628  470.774  473.450  474.628  477.442  478.978  479.716  481.712  482.977  483.549  484.567  485.890  485.174  485.498  484.808  484.325  483.301  481.115  479.223  476.724  473.559  470.176  466.787  462.485  458.316  453.494  446.979  440.106  434.187  427.171  419.469  411.432  402.811  393.660  385.215  375.321  371.155  358.865  344.806  334.118  322.725  311.857  300.785  289.106  277.967 
DATE 2017:042:01:47:31 obsn  18 az 160 el 50 freq_MHz  1420.4010 Tsys 171.000 Tant 458.867 vlsr   40.37 glat -19.187 glon 209.124 source Orion 
Fstart 1419.398 fstop 1421.404 spacing 0.009375 bw    2.400 fbw    2.000 MHz nfreq 256 nsam 5242880 npoint 214 integ   205 sigma    0.123 bsw 0
Spectrum    188 integration periods
 260.721  272.947  282.539  294.165  305.256  315.672  326.715  337.388  347.941  357.227  367.249  376.672  385.705  394.888  402.714  411.007  417.828  425.259  431.023  437.675  442.969  447.669  452.707  457.209  460.278  462.942  465.795  468.118  471.250  472.519  472.786  474.034  474.034  473.919  473.620  472.731  473.129  472.119  470.820  469.896  468.915  467.896  465.410  463.414  461.731  459.012  457.858  456.026  454.743  453.219  451.593  449.696  448.259  446.816  447.033  444.959  443.873  443.083  441.934  441.443  440.155  440.195  440.575  446.214  440.700  440.479  442.027  443.065  456.427  445.711  461.704  459.268  449.499  451.398  453.382  457.508  460.076  462.789  466.062  470.570  475.886  482.303  490.419  500.519  513.181  528.738  546.759  561.070  573.206  583.724  575.992  562.113  549.477  538.558  531.647  527.358  527.954  529.220  526.805  523.946  520.814  519.396  518.697  518.655  518.500  519.227  518.920  518.885  519.334  518.502  518.518  518.699  517.495  517.442  515.832  514.236  512.869  511.211  510.187  507.436  505.310  503.362  500.116  498.371  495.324  493.088  491.088  488.108  485.367  484.116  482.770  476.857  474.005  473.050  470.370  467.164  465.301  463.221  460.112  458.639  456.662  454.694  452.411  450.954  449.629  448.851  448.160  447.535  446.987  445.595  445.542  445.479  450.654  445.515  446.096  448.597  448.446  449.138  449.797  451.540  453.229  454.431  455.766  457.781  459.638  461.658  463.268  465.229  466.973  469.590  470.725  473.390  474.530  477.450  478.861  479.655  481.704  483.073  483.472  484.620  485.832  484.971  485.460  484.737  484.161  483.150  481.145  479.189  476.671  473.571  470.303  466.648  462.534  458.316  453.397  446.949  439.991  434.126  427.105  419.511  411.377  402.748  393.680  385.168  375.302  370.950  358.716  344.655  334.087  322.710  311.880  300.762  289.084  277.948 
DATE 2017:042:01:47:45 obsn  19 az 160 el 50 freq_MHz  1420.4010 Tsys 171.000 Tant 455.218 vlsr   40.37 glat -19.187 glon 209.124 source Orion 
Fstart 1419.398 fstop 1421.404 spacing 0.009375 bw    2.400 fbw    2.000 MHz nfreq 256 nsam 5242880 npoint 214 integ   216 sigma    0.120 bsw 0
Spectrum    198 integration periods
 260.706  272.802  282.534  294.105  305.193  315.555  326.643  337.329  347.844  357.125  367.161  376.632  385.690  394.807  402.549  410.911  417.665  425.128  430.910  437.497  442.867  447.522  452.626  457.064  460.254  462.812  465.744  468.088  471.292  472.594  472.667  473.912  474.109  473.951  473.388  472.580  472.958  472.042  470.739  469.754  468.797  467.738  465.290  463.460  461.655  458.773  457.737  455.832  454.545  453.100  451.507  449.574  448.201  446.633  446.927  444.903  443.742  443.021  441.912  441.422  440.144  440.076  440.482  445.894  440.514  440.453  441.955  442.989  456.035  445.469  461.514  459.076  449.401  451.293  453.151  457.360  460.059  462.584  466.014  470.556  475.944  482.232  490.383  500.524  513.376  528.861  546.899  560.995  572.959  583.625  575.923  562.117  549.452  538.500  531.558  527.376  527.987  529.152  526.807  523.864  520.837  519.404  518.595  518.427  518.323  519.042  518.784  518.710  519.130  518.377  518.500  518.724  517.350  517.273  515.665  514.067  512.667  511.144  510.221  507.348  505.266  503.206  499.959  498.154  495.321  492.872  490.850  488.022  485.091  484.091  482.444  476.726  473.890  472.890  470.306  467.124  465.160  463.164  460.064  458.461  456.561  454.667  452.322  450.867  449.514  448.757  448.104  447.442  446.830  445.496  445.378  445.322  450.605  445.484  445.888  448.551  448.198  449.028  449.688  451.481  453.045  454.170  455.622  457.644  459.615  461.553  463.223  465.164  467.050  469.547  470.605  473.234  474.450  477.337  478.539  479.595  481.623  482.907  483.585  484.532  485.933  484.950  485.380  484.652  484.043  482.936  481.040  478.935  476.695  473.458  470.276  466.606  462.387  458.204  453.359  446.823  439.970  434.114  427.070  419.482  411.257  402.570  393.680  385.156  375.275  370.926  358.636  344.668  334.003  322.717  311.810  300.697  288.948  277.870 
DATE 2017:042:01:47:58 obsn  20 az 160 el 50 freq_MHz  1420.4010 Tsys 171.000 Tant 456.298 vlsr   40.37 glat -19.187 glon 209.124 source Orion 
Fstart 1419.398 fstop 1421.404 spacing 0.009375 bw    2.400 fbw    2.000 MHz nfreq 256 nsam 5242880 npoint 214 integ   227 sigma    0.117 bsw 0
Spectrum    208 integration periods
 260.556  272.700  282.370  294.020  305.128  315.476  326.643  337.247  347.762  356.990  367.016  376.594  385.578  394.698  402.485  410.842  417.589  424.934  430.908  437.335  442.734  447.460  452.529  456.921  460.132  462.658  465.493  467.888  471.106  472.328  472.526  473.783  474.037  473.914  473.237  472.604  472.712  471.923  470.579  469.540  468.740  467.692  465.094  463.390  461.481  458.575  457.625  455.636  454.478  453.079  451.435  449.409  448.093  446.395  446.755  444.594  443.552  442.831  441.857  441.285  440.031  439.967  440.413  445.775  440.432  440.334  441.883  442.915  455.729  445.350  461.506  458.836  449.330  451.234  453.113  457.314  460.020  462.493  465.932  470.490  475.748  482.087  490.188  500.469  513.517  529.120  547.065  561.093  572.979  583.715  575.903  561.917  549.267  538.320  531.600  527.367  528.008  529.056  526.790  523.592  520.736  519.246  518.449  518.361  518.294  518.851  518.687  518.608  518.905  518.416  518.471  518.606  517.287  517.097  515.473  513.826  512.559  511.161  510.183  507.356  505.077  503.164  499.888  498.071  495.221  492.777  490.834  487.910  484.966  483.953  482.400  476.678  473.788  472.752  470.233  466.953  465.101  463.108  459.929  458.355  456.458  454.516  452.227  450.857  449.372  448.687  448.009  447.297  446.792  445.518  445.288  445.281  450.569  445.382  445.906  448.396  448.121  448.927  449.472  451.256  453.058  454.106  455.556  457.579  459.607  461.554  463.088  464.988  466.937  469.444  470.540  473.195  474.362  477.334  478.354  479.540  481.463  482.762  483.576  484.409  485.707  484.814  485.368  484.580  483.957  482.730  480.984  478.814  476.528  473.348  470.276  466.553  462.363  458.019  453.326  446.747  439.925  433.926  427.026  419.392  411.080  402.591  393.685  385.096  375.149  370.943  358.487  344.607  333.909  322.653  311.717  300.522  288.886  277.785 
DATE 2017:042:01:48:11 obsn  21 az 160 el 50 freq_MHz  1420.4010 Tsys 171.000 Tant 455.412 vlsr   40.37 glat -19.187 glon 209.124 source Orion 
Fstart 1419.398 fstop 1421.404 spacing 0.009375 bw    2.400 fbw    2.000 MHz nfreq 256 nsam 5242880 npoint 214 integ   238 sigma    0.114 bsw 0
Spectrum    218 integration periods
 260.418  272.596  282.286  293.917  305.019  315.430  326.602  337.216  347.642  356.905  366.986  376.528  385.529  394.535  402.423  410.683  417.419  424.787  430.715  437.251  442.553  447.400  452.277  456.779  460.012  462.537  465.331  467.751  470.986  472.185  472.403  473.652  473.844  473.857  473.116  472.391  472.655  471.854  470.466  469.313  468.564  467.523  464.815  463.226  461.343  458.567  457.531  455.564  454.358  452.880  451.317  449.243  448.005  446.278  446.621  444.428  443.397  442.707  441.740  441.105  439.881  439.818  440.188  445.571  440.216  440.151  441.805  442.754  455.465  445.068  461.415  458.617  449.284  450.995  452.944  457.214  459.891  462.343  465.730  470.286  475.638  482.052  490.171  500.381  513.515  529.244  547.240  561.099  572.906  583.707  575.841  561.890  549.108  538.184  531.546  527.277  528.011  528.964  526.735  523.422  520.785  519.044  518.329  518.249  518.113  518.776  518.492  518.532  518.675  518.250  518.350  518.262  517.043  517.046  515.187  513.743  512.448  511.151  510.160  507.147  504.849  502.973  499.746  497.872  495.028  492.630  490.708  487.740  484.782  483.873  482.228  476.550  473.766  472.627  470.105  466.684  464.901  462.990  459.787  458.301  456.340  454.430  452.219  450.825  449.296  448.617  447.940  447.221  446.648  445.417  445.147  445.227  450.532  445.314  445.875  448.197  448.037  448.890  449.341  451.096  452.904  453.893  455.463  457.490  459.551  461.390  462.964  464.715  466.781  469.178  470.302  473.038  474.128  477.213  478.121  479.491  481.349  482.584  483.367  484.168  485.479  484.660  485.248  484.460  483.843  482.572  480.806  478.665  476.445  473.279  470.129  466.394  462.224  457.759  453.327  446.638  439.909  433.799  426.889  419.318  411.061  402.455  393.531  385.052  375.019  370.886  358.339  344.543  333.799  322.560  311.624  300.494  288.798  277.729 
DATE 2017:042:01:48:32 obsn  22 az 161 el 50 freq_MHz  1420.4010 Tsys 171.000 Tant 457.624 vlsr   40.37 glat -19.187 glon 209.124 source Orion 
Fstart 1419.398 fstop 1421.404 spacing 0.009375 bw    2.400 fbw    2.000 MHz nfreq 256 nsam 5242880 npoint 214 integ   249 sigma    0.112 bsw 0
Spectrum    228 integration periods
 260.270  272.499  282.180  293.830  304.860  315.311  326.523  337.121  347.640  356.901  366.923  376.483  385.365  394.483  402.217  410.640  417.345  424.652  430.512  437.118  442.464  447.195  452.248  456.653  459.919  462.281  465.223  467.618  470.909  472.021  472.308  473.476  473.743  473.835  473.018  472.305  472.496  471.788  470.389  469.178  468.354  467.485  464.783  463.098  461.268  458.554  457.376  455.380  454.292  452.785  451.225  449.069  447.960  446.218  446.481  444.286  443.204  442.501  441.720  440.969  439.788  439.746  440.154  445.502  440.037  440.086  441.649  442.623  455.204  444.816  461.432  458.423  449.191  450.847  452.839  457.163  459.842  462.165  465.593  470.086  475.570  481.926  490.133  500.268  513.568  529.271  547.362  561.125  572.971  583.677  575.814  561.677  548.917  538.199  531.389  527.134  528.228  529.031  526.810  523.324  520.628  518.952  518.144  518.105  518.133  518.765  518.382  518.530  518.694  518.151  518.189  518.255  516.969  516.939  515.229  513.668  512.347  510.940  510.079  507.170  504.807  502.797  499.643  497.878  494.971  492.497  490.666  487.658  484.696  483.722  482.136  476.401  473.600  472.545  470.032  466.581  464.767  462.772  459.793  458.262  456.190  454.306  452.124  450.935  449.115  448.547  447.880  447.090  446.534  445.347  445.109  445.175  450.458  445.235  445.833  448.092  447.934  448.765  449.272  451.027  452.876  453.810  455.424  457.377  459.470  461.276  462.886  464.472  466.619  469.130  470.281  472.992  474.010  477.034  478.089  479.340  481.231  482.417  483.252  483.970  485.436  484.613  485.134  484.332  483.838  482.445  480.732  478.594  476.289  473.184  470.044  466.288  462.116  457.619  453.232  446.632  439.923  433.768  426.747  419.269  410.934  402.427  393.406  385.020  374.898  370.711  358.223  344.520  333.761  322.457  311.605  300.503  288.826  277.686 
DATE 2017:042:01:48:45 obsn  23 az 161 el 50 freq_MHz  1420.4010 Tsys 171.000 Tant 455.642 vlsr   40.37 glat -19.187 glon 209.124 source Orion 
Fstart 1419.398 fstop 1421.404 spacing 0.009375 bw    2.400 fbw    2.000 MHz nfreq 256 nsam 5242880 npoint 214 integ   260 sigma    0.110 bsw 0
Spectrum    238 integration periods
 260.246  272.475  282.069  293.707  304.763  315.180  326.378  337.047  347.528  356.769  366.836  376.363  385.276  394.429  402.078  410.620  417.222  424.461  430.489  436.952  442.343  447.122  452.097  456.592  459.862  462.228  465.125  467.584  470.771  471.876  472.250  473.359  473.543  473.657  472.930  472.267  472.359  471.739  470.260  469.044  468.194  467.311  464.569  463.070  461.127  458.535  457.180  455.339  454.084  452.623  451.199  448.853  447.741  446.099  446.364  444.254  443.104  442.416  441.679  440.845  439.665  439.661  440.071  445.485  439.831  439.945  441.539  442.591  454.936  444.560  461.065  458.260  449.041  450.800  452.801  457.069  459.653  461.987  465.462  469.980  475.461  481.852  490.121  500.246  513.701  529.242  547.308  560.941  572.906  583.336  575.510  561.399  548.778  538.067  531.244  527.133  528.208  528.901  526.883  523.321  520.518  518.809  518.071  517.969  517.990  518.740  518.307  518.450  518.614  518.010  518.099  518.056  516.857  516.761  515.135  513.543  512.194  511.049  509.974  507.097  504.703  502.621  499.662  497.870  494.832  492.335  490.451  487.528  484.633  483.692  482.176  476.359  473.523  472.506  469.809  466.598  464.641  462.595  459.783  458.175  456.000  454.221  452.103  450.902  448.977  448.358  447.876  447.027  446.479  445.280  445.067  445.012  450.374  445.140  445.681  448.007  447.756  448.759  449.304  450.968  452.802  453.656  455.257  457.353  459.435  461.243  462.788  464.478  466.519  469.039  470.299  472.952  473.961  476.986  478.063  479.298  481.025  482.391  483.218  483.932  485.380  484.733  485.144  484.254  483.782  482.378  480.761  478.515  476.094  473.120  469.984  466.282  462.010  457.524  453.120  446.482  439.945  433.668  426.638  419.152  410.960  402.431  393.407  385.091  374.867  370.480  358.065  344.433  333.704  322.412  311.569  300.430  288.741  277.600 
DATE 2017:042:01:48:58 obsn  24 az 161 el 50 freq_MHz  1420.4010 Tsys 171.000 Tant 454.884 vlsr   40.37 glat -19.187 glon 209.124 source Orion 
Fstart 1419.398 fstop 1421.404 spacing 0.009375 bw    2.400 fbw    2.000 MHz nfreq 256 nsam 5242880 npoint 214 integ   271 sigma    0.107 bsw 0
Spectrum    248 integration periods
 260.214  272.405  282.082  293.663  304.696  315.110  326.330  336.904  347.447  356.679  366.852  376.290  385.261  394.357  401.979  410.515  417.130  424.306  430.426  436.801  442.218  446.978  451.906  456.506  459.759  462.096  464.996  467.375  470.702  471.783  472.111  473.305  473.395  473.556  472.883  472.113  472.327  471.610  470.042  468.863  468.056  467.186  464.371  462.936  461.003  458.399  457.045  455.153  453.940  452.508  451.150  448.701  447.566  445.927  446.225  444.128  443.063  442.232  441.617  440.825  439.625  439.592  439.994  445.443  439.734  439.846  441.465  442.513  454.690  444.399  460.797  457.992  448.880  450.668  452.614  456.963  459.492  461.831  465.420  469.856  475.355  481.638  490.092  500.270  513.642  529.142  547.313  560.869  572.718  582.956  575.246  561.204  548.537  537.955  531.168  527.071  528.200  528.831  526.825  523.176  520.486  518.674  518.021  517.925  517.859  518.725  518.180  518.264  518.532  517.836  517.940  517.833  516.734  516.577  515.075  513.354  512.124  510.967  509.900  507.065  504.559  502.459  499.617  497.800  494.863  492.189  490.374  487.423  484.597  483.627  482.212  476.323  473.424  472.387  469.612  466.459  464.551  462.601  459.741  458.128  455.885  454.268  451.965  450.890  448.840  448.290  447.744  446.865  446.438  445.190  444.946  444.904  450.293  445.022  445.607  447.987  447.687  448.611  449.326  450.853  452.759  453.549  455.117  457.123  459.408  461.230  462.726  464.323  466.478  468.925  470.199  472.887  473.900  477.021  477.976  479.178  480.932  482.342  483.101  483.993  485.349  484.809  485.140  484.271  483.790  482.423  480.676  478.498  476.008  473.132  470.008  466.287  461.901  457.445  452.960  446.477  439.847  433.576  426.482  419.107  410.899  402.384  393.252  385.025  374.825  370.239  357.886  344.324  333.638  322.315  311.522  300.394  288.709  277.543 
DATE 2017:042:01:49:11 obsn  25 az 161 el 50 freq_MHz  1420.4010 Tsys 171.000 Tant 457.294 vlsr   40.37 glat -19.187 glon 209.124 source Orion 
Fstart 1419.398 fstop 1421.404 spacing 0.009375 bw    2.400 fbw    2.000 MHz nfreq 256 nsam 5242880 npoint 214 integ   282 sigma    0.105 bsw 0
Spectrum    258 integration periods
 260.206  272.306  282.005  293.623  304.602  315.063  326.222  336.925  347.373  356.626  366.791  376.324  385.180  394.169  401.868  410.378  417.136  424.217  430.285  436.669  442.110  446.833  451.818  456.434  459.644  462.011  464.819  467.361  470.548  471.616  472.052  473.185  473.225  473.440  472.773  472.030  472.200  471.458  469.986  468.740  467.894  467.123  464.234  462.808  460.907  458.407  456.952  455.028  453.876  452.476  451.104  448.628  447.458  445.933  446.156  443.937  442.977  442.130  441.544  440.737  439.619  439.577  439.987  445.338  439.661  439.867  441.350  442.433  454.462  444.372  460.759  457.900  448.845  450.551  452.609  456.947  459.505  462.054  465.476  469.725  475.292  481.640  490.049  500.227  513.687  529.166  547.254  560.875  572.637  582.757  575.023  561.084  548.381  537.721  531.113  527.026  528.335  528.772  526.700  523.185  520.471  518.513  517.885  517.930  517.733  518.739  518.194  518.138  518.394  517.776  517.792  517.784  516.598  516.482  515.042  513.341  512.096  510.915  509.897  506.953  504.597  502.478  499.648  497.663  494.764  492.013  490.401  487.342  484.564  483.523  482.156  476.182  473.332  472.234  469.632  466.521  464.402  462.587  459.690  458.156  455.831  454.233  451.855  450.837  448.837  448.299  447.574  446.956  446.439  445.279  444.863  444.888  450.375  445.031  445.673  448.095  447.736  448.584  449.351  450.707  452.748  453.606  455.047  457.143  459.328  461.182  462.702  464.330  466.417  468.913  470.178  472.811  473.906  477.042  477.938  479.169  480.972  482.364  483.154  484.076  485.385  484.764  485.119  484.279  483.746  482.394  480.670  478.485  475.983  473.090  469.957  466.194  461.881  457.321  452.958  446.512  439.839  433.553  426.502  419.092  410.901  402.324  393.243  384.992  374.745  370.037  357.888  344.297  333.672  322.386  311.474  300.370  288.674  277.535 
DATE 2017:042:01:49:24 obsn  26 az 161 el 50 freq_MHz  1420.4010 Tsys 171.000 Tant 454.818 vlsr   40.37 glat -19.187 glon 209.124 source Orion 
Fstart 1419.398 fstop 1421.404 spacing 0.009375 bw    2.400 fbw    2.000 MHz nfreq 256 nsam 5242880 npoint 214 integ   293 sigma    0.103 bsw 0
Spectrum    268 integration periods
 260.087  272.167  281.908  293.528  304.463  314.983  326.169  336.832  347.188  356.467  366.636  376.219  385.094  393.977  401.735  410.285  416.928  424.039  430.251  436.555  441.922  446.710  451.725  456.298  459.468  461.935  464.653  467.170  470.430  471.488  471.983  473.107  473.112  473.291  472.723  471.992  472.019  471.270  469.834  468.648  467.711  467.035  464.166  462.703  460.775  458.327  456.813  454.914  453.717  452.309  450.996  448.538  447.312  445.764  445.974  443.872  442.858  441.978  441.533  440.652  439.471  439.428  439.898  445.174  439.485  439.754  441.212  442.407  454.261  444.182  460.418  457.690  448.751  450.480  452.540  456.839  459.370  462.142  465.375  469.730  475.195  481.489  489.966  500.262  513.769  529.079  547.115  560.831  572.514  582.485  574.791  560.837  548.218  537.530  531.073  526.901  528.314  528.757  526.592  523.102  520.332  518.484  517.818  517.879  517.557  518.566  518.091  518.081  518.151  517.766  517.672  517.739  516.443  516.390  514.900  513.265  511.959  510.740  509.837  506.809  504.527  502.335  499.493  497.564  494.686  491.883  490.247  487.223  484.397  483.445  482.089  476.111  473.247  472.101  469.509  466.503  464.357  462.476  459.671  458.124  455.593  454.111  451.876  450.803  448.843  448.188  447.497  446.754  446.314  445.178  444.804  444.874  450.312  445.019  445.612  448.180  447.577  448.514  449.253  450.573  452.643  453.517  454.903  457.097  459.280  461.124  462.662  464.302  466.375  468.842  470.223  472.625  473.915  476.997  477.870  479.157  480.889  482.200  483.090  484.047  485.234  484.710  485.110  484.137  483.546  482.263  480.566  478.247  475.911  473.176  469.953  466.155  461.859  457.251  452.926  446.495  439.759  433.560  426.454  419.043  410.848  402.259  393.170  385.007  374.737  369.910  357.771  344.255  333.632  322.348  311.408  300.327  288.673  277.448 
DATE 2017:042:01:49:38 obsn  27 az 161 el 50 freq_MHz  1420.4010 Tsys 171.000 Tant 456.455 vlsr   40.37 glat -19.187 glon 209.124 source Orion 
Fstart 1419.398 fstop 1421.404 spacing 0.009375 bw    2.400 fbw    2.000 MHz nfreq 256 nsam 5242880 npoint 214 integ   304 sigma    0.101 bsw 0
Spectrum    278 integration periods
 260.030  272.114  281.849  293.467  304.399  314.927  326.078  336.821  347.217  356.372  366.521  376.089  384.995  393.832  401.653  410.255  416.862  423.985  430.143  436.471  441.896  446.698  451.723  456.252  459.320  461.803  464.571  467.171  470.332  471.462  471.942  473.025  473.164  473.184  472.748  471.929  471.966  471.280  469.828  468.541  467.555  466.975  464.088  462.585  460.681  458.207  456.697  454.896  453.641  452.355  450.945  448.509  447.173  445.783  445.882  443.669  442.802  441.857  441.472  440.528  439.481  439.284  439.867  445.093  439.326  439.670  441.159  442.385  454.047  444.049  460.379  457.534  448.667  450.306  452.473  456.795  459.290  462.141  465.202  469.588  475.051  481.340  489.936  500.258  513.815  529.134  546.994  560.817  572.549  582.401  574.634  560.778  548.043  537.491  531.042  526.924  528.331  528.721  526.459  523.047  520.288  518.445  517.682  517.825  517.591  518.513  518.011  517.935  518.044  517.759  517.655  517.641  516.369  516.367  514.852  513.150  511.918  510.681  509.693  506.750  504.426  502.274  499.454  497.401  494.615  491.854  490.197  487.076  484.371  483.449  482.129  476.062  473.223  472.004  469.445  466.445  464.323  462.302  459.618  458.110  455.490  454.019  451.835  450.815  448.725  447.964  447.397  446.732  446.280  445.152  444.717  444.766  450.321  445.000  445.581  448.096  447.517  448.426  449.093  450.464  452.503  453.417  454.925  457.034  459.365  461.088  462.604  464.348  466.281  468.832  470.235  472.593  473.978  476.935  477.864  479.119  480.855  482.279  482.990  483.983  485.176  484.718  485.148  484.078  483.370  482.174  480.596  478.218  475.820  473.146  469.873  466.019  461.801  457.250  452.943  446.388  439.833  433.381  426.395  418.993  410.761  402.180  393.154  384.995  374.656  369.784  357.679  344.218  333.581  322.274  311.335  300.352  288.591  277.384 
DATE 2017:042:01:49:51 obsn  28 az 161 el 50 freq_MHz  1420.4010 Tsys 171.000 Tant 456.697 vlsr   40.37 glat -19.187 glon 209.124 source Orion 
Fstart 1419.398 fstop 1421.404 spacing 0.009375 bw    2.400 fbw    2.000 MHz nfreq 256 nsam 5242880 npoint 214 integ   315 sigma    0.100 bsw 0
Spectrum    288 integration periods
 260.037  272.073  281.829  293.457  304.322  314.863  326.002  336.869  347.143  356.303  366.502  375.994  384.827  393.716  401.647  410.284  416.807  423.882  430.155  436.408  441.821  446.585  451.720  456.165  459.384  461.796  464.444  467.083  470.331  471.359  471.881  472.983  473.083  473.269  472.793  471.805  471.886  471.258  469.851  468.515  467.549  466.957  463.987  462.589  460.714  458.081  456.651  454.856  453.513  452.363  450.976  448.428  447.087  445.731  445.873  443.559  442.727  441.706  441.376  440.456  439.445  439.195  439.919  445.041  439.189  439.565  441.140  442.343  453.928  444.064  460.298  457.491  448.634  450.249  452.396  456.805  459.239  462.133  465.167  469.569  475.010  481.294  489.861  500.219  513.844  529.114  547.011  560.861  572.553  582.232  574.572  560.691  547.928  537.564  531.075  526.857  528.384  528.677  526.474  523.016  520.283  518.371  517.719  517.749  517.487  518.375  517.916  517.858  518.013  517.794  517.534  517.526  516.284  516.307  514.698  513.128  511.917  510.624  509.640  506.709  504.409  502.224  499.379  497.237  494.588  491.843  490.182  487.116  484.279  483.396  482.077  476.066  473.221  471.923  469.413  466.445  464.270  462.303  459.521  458.052  455.380  454.070  451.783  450.783  448.669  447.915  447.384  446.715  446.152  445.111  444.663  444.706  450.278  444.941  445.584  447.971  447.522  448.381  449.036  450.516  452.517  453.352  454.889  456.964  459.346  461.051  462.511  464.270  466.320  468.810  470.226  472.505  474.024  476.920  477.827  479.097  480.742  482.189  482.993  483.963  485.107  484.638  485.190  484.117  483.352  482.238  480.608  478.352  475.706  473.037  469.846  465.907  461.729  457.238  452.854  446.350  439.777  433.297  426.402  418.951  410.723  402.143  393.129  384.981  374.561  369.647  357.637  344.197  333.536  322.251  311.316  300.289  288.557  277.390 
DATE 2017:042:01:50:04 obsn  29 az 161 el 50 freq_MHz  1420.4010 Tsys 171.000 Tant 457.632 vlsr   40.37 glat -19.187 glon 209.124 source Orion 
Fstart 1419.398 fstop 1421.404 spacing 0.009375 bw    2.400 fbw    2.000 MHz nfreq 256 nsam 5242880 npoint 214 integ   325 sigma    0.098 bsw 0
Spectrum    298 integration periods
 260.009  272.038  281.805  293.445  304.287  314.829  325.984  336.851  347.076  356.287  366.470  375.926  384.835  393.654  401.605  410.298  416.778  423.814  430.137  436.384  441.792  446.568  451.691  456.069  459.358  461.851  464.480  467.018  470.268  471.281  471.828  472.884  473.101  473.175  472.680  471.813  471.886  471.216  469.781  468.454  467.511  466.957  463.978  462.444  460.602  458.011  456.646  454.834  453.528  452.311  450.867  448.394  447.064  445.780  445.890  443.477  442.669  441.542  441.307  440.471  439.400  439.162  439.935  445.004  439.043  439.438  441.140  442.280  453.744  444.018  460.142  457.360  448.641  450.192  452.325  456.780  459.178  462.016  465.175  469.405  474.860  481.296  489.813  500.241  513.887  529.170  547.047  560.903  572.488  582.247  574.562  560.718  547.811  537.526  531.073  526.944  528.465  528.699  526.410  523.031  520.280  518.299  517.591  517.698  517.468  518.432  517.889  517.816  517.858  517.815  517.479  517.452  516.250  516.276  514.648  513.067  511.841  510.494  509.571  506.658  504.369  502.168  499.283  497.143  494.661  491.799  490.102  486.965  484.239  483.406  481.991  476.034  473.138  471.991  469.376  466.408  464.174  462.279  459.425  458.036  455.352  454.102  451.724  450.777  448.634  447.833  447.371  446.666  446.067  445.093  444.551  444.642  450.256  445.004  445.590  447.958  447.440  448.344  448.963  450.605  452.469  453.213  454.841  456.950  459.309  460.999  462.431  464.150  466.314  468.707  470.248  472.432  474.012  476.891  477.923  479.129  480.658  482.129  482.933  483.956  485.102  484.692  485.102  483.977  483.289  482.190  480.562  478.348  475.706  472.959  469.851  465.890  461.736  457.169  452.794  446.314  439.784  433.196  426.419  418.913  410.744  402.097  393.083  384.939  374.477  369.603  357.566  344.138  333.474  322.236  311.246  300.297  288.591  277.408 
DATE 2017:042:01:50:17 obsn  30 az 161 el 50 freq_MHz  1420.4010 Tsys 171.000 Tant 456.746 vlsr   40.37 glat -19.187 glon 209.124 source Orion 
Fstart 1419.398 fstop 1421.404 spacing 0.009375 bw    2.400 fbw    2.000 MHz nfreq 256 nsam 5242880 npoint 214 integ   336 sigma    0.096 bsw 0
Spectrum    308 integration periods
 259.930  271.954  281.762  293.447  304.226  314.757  325.995  336.848  347.024  356.237  366.419  375.951  384.829  393.536  401.628  410.343  416.785  423.732  430.089  436.352  441.742  446.545  451.687  456.008  459.312  461.828  464.463  466.923  470.235  471.206  471.870  472.841  473.048  473.089  472.582  471.772  471.822  471.255  469.699  468.457  467.426  466.944  463.852  462.456  460.566  457.956  456.630  454.797  453.455  452.201  450.817  448.334  446.904  445.790  445.913  443.428  442.603  441.485  441.307  440.403  439.360  439.169  439.834  444.923  439.042  439.475  441.038  442.150  453.576  444.031  460.092  457.310  448.610  450.174  452.381  456.758  459.199  462.009  465.092  469.482  474.842  481.253  489.820  500.190  514.013  529.269  547.072  560.937  572.454  582.227  574.463  560.675  547.740  537.487  531.141  526.967  528.438  528.596  526.342  522.931  520.231  518.328  517.612  517.575  517.435  518.441  517.883  517.780  517.857  517.823  517.417  517.380  516.212  516.234  514.659  512.933  511.769  510.344  509.495  506.632  504.302  502.091  499.221  497.109  494.649  491.738  490.021  486.981  484.178  483.362  482.060  476.091  473.093  472.023  469.308  466.427  464.192  462.170  459.430  458.098  455.325  453.997  451.634  450.786  448.605  447.837  447.294  446.603  445.997  445.043  444.553  444.603  450.234  444.931  445.545  447.888  447.333  448.290  448.986  450.540  452.419  453.233  454.840  456.908  459.238  461.014  462.369  464.246  466.240  468.683  470.186  472.372  473.937  476.865  477.863  479.119  480.605  482.066  482.827  483.929  485.085  484.601  485.073  483.942  483.238  482.080  480.526  478.393  475.717  472.913  469.825  465.811  461.730  457.121  452.859  446.372  439.746  433.129  426.439  418.880  410.682  402.082  393.089  384.926  374.453  369.521  357.486  344.143  333.462  322.239  311.207  300.299  288.572  277.368 
DATE 2017:042:01:50:30 obsn  31 az 161 el 50 freq_MHz  1420.4010 Tsys 171.000 Tant 456.954 vlsr   40.37 glat -19.187 glon 209.124 source Orion 
Fstart 1419.398 fstop 1421.404 spacing 0.009375 bw    2.400 fbw    2.000 MHz nfreq 256 nsam 5242880 npoint 214 integ   347 sigma    0.095 bsw 0
Spectrum    318 integration periods
 259.890  271.883  281.715  293.396  304.162  314.752  325.960  336.868  346.978  356.242  366.415  375.879  384.782  393.454  401.541  410.323  416.713  423.677  430.069  436.232  441.683  446.426  451.616  455.958  459.334  461.735  464.389  466.929  470.186  471.094  471.904  472.752  472.986  473.035  472.469  471.738  471.781  471.218  469.543  468.472  467.377  466.938  463.807  462.406  460.595  457.878  456.633  454.721  453.354  452.146  450.747  448.356  446.834  445.784  445.897  443.301  442.499  441.491  441.202  440.411  439.253  439.097  439.861  444.932  439.055  439.413  441.007  441.995  453.404  443.979  459.833  457.190  448.564  450.220  452.339  456.677  459.106  461.956  465.068  469.388  474.764  481.202  489.854  500.171  513.967  529.260  547.058  560.923  572.470  582.232  574.470  560.614  547.703  537.494  531.045  527.027  528.523  528.598  526.283  522.834  520.237  518.247  517.556  517.521  517.368  518.390  517.781  517.727  517.739  517.735  517.488  517.383  516.221  516.186  514.617  512.833  511.647  510.333  509.513  506.508  504.221  501.989  499.166  497.096  494.617  491.709  490.060  486.908  484.196  483.331  481.933  476.103  473.069  472.021  469.241  466.419  464.170  462.210  459.401  458.031  455.261  453.992  451.639  450.752  448.562  447.798  447.246  446.614  445.939  444.949  444.475  444.624  450.159  444.929  445.545  447.794  447.254  448.193  448.957  450.555  452.425  453.163  454.813  456.843  459.179  461.010  462.420  464.166  466.178  468.651  470.142  472.322  473.913  476.776  477.850  479.070  480.591  482.111  482.838  483.859  485.017  484.638  485.119  483.834  483.171  481.973  480.490  478.231  475.618  472.881  469.746  465.735  461.662  457.141  452.786  446.385  439.682  433.125  426.404  418.878  410.751  402.014  393.039  384.926  374.531  369.456  357.390  344.098  333.510  322.263  311.177  300.289  288.564  277.344 
DATE 2017:042:01:50:43 obsn  32 az 161 el 50 freq_MHz  1420.4010 Tsys 171.000 Tant 456.781 vlsr   40.37 glat -19.187 glon 209.124 source Orion 
Fstart 1419.398 fstop 1421.404 spacing 0.009375 bw    2.400 fbw    2.000 MHz nfreq 256 nsam 5242880 npoint 214 integ   358 sigma    0.093 bsw 0
Spectrum    328 integration periods
 259.865  271.874  281.707  293.370  304.086  314.717  325.888  336.840  346.959  356.202  366.381  375.845  384.730  393.430  401.501  410.293  416.669  423.573  429.970  436.186  441.642  446.390  451.621  455.914  459.304  461.682  464.362  466.941  470.158  471.095  471.813  472.770  473.051  473.003  472.460  471.707  471.719  471.210  469.507  468.440  467.344  466.933  463.771  462.400  460.571  457.936  456.545  454.673  453.300  452.151  450.692  448.347  446.893  445.715  445.879  443.225  442.490  441.526  441.117  440.363  439.108  439.035  439.904  444.919  439.050  439.493  440.953  441.936  453.347  443.973  459.940  457.160  448.542  450.184  452.342  456.641  459.072  461.886  465.093  469.444  474.773  481.259  489.801  500.157  514.007  529.193  547.176  560.974  572.477  582.244  574.526  560.634  547.705  537.486  531.078  526.996  528.489  528.561  526.307  522.753  520.181  518.224  517.537  517.493  517.361  518.397  517.735  517.580  517.725  517.729  517.536  517.446  516.204  516.106  514.587  512.806  511.561  510.324  509.425  506.476  504.206  501.936  499.127  497.078  494.627  491.672  490.027  486.881  484.256  483.297  481.927  476.053  473.049  471.997  469.248  466.381  464.183  462.144  459.426  458.044  455.292  453.999  451.635  450.745  448.545  447.747  447.250  446.574  445.858  444.935  444.489  444.580  450.193  444.934  445.522  447.702  447.241  448.179  448.897  450.515  452.372  453.169  454.754  456.900  459.218  460.995  462.370  464.218  466.178  468.654  470.161  472.344  473.910  476.763  477.839  479.053  480.608  482.114  482.751  483.792  484.986  484.683  485.152  483.800  483.138  482.006  480.496  478.219  475.552  472.856  469.807  465.714  461.676  457.069  452.790  446.363  439.635  433.106  426.408  418.905  410.687  401.989  393.056  384.893  374.513  369.380  357.362  344.141  333.477  322.295  311.191  300.320  288.582  277.348 
DATE 2017:042:01:50:56 obsn  33 az 161 el 50 freq_MHz  1420.4010 Tsys 171.000 Tant 455.464 vlsr   40.37 glat -19.187 glon 209.124 source Orion 
Fstart 1419.398 fstop 1421.404 spacing 0.009375 bw    2.400 fbw    2.000 MHz nfreq 256 nsam 5242880 npoint 214 integ   369 sigma    0.092 bsw 0
Spectrum    338 integration periods
 259.832  271.840  281.724  293.360  304.121  314.701  325.806  336.801  346.937  356.225  366.366  375.801  384.693  393.370  401.455  410.301  416.634  423.574  429.928  436.195  441.665  446.345  451.611  455.920  459.391  461.669  464.417  466.938  470.090  471.054  471.787  472.812  472.894  473.048  472.417  471.689  471.690  471.156  469.544  468.388  467.363  466.877  463.801  462.412  460.538  457.851  456.530  454.647  453.337  452.124  450.686  448.352  446.841  445.734  445.859  443.181  442.418  441.492  441.115  440.393  439.039  438.988  439.872  444.876  438.961  439.472  440.920  441.906  453.174  444.080  459.850  457.039  448.504  450.159  452.326  456.537  458.941  461.826  464.992  469.383  474.737  481.157  489.794  500.197  514.031  529.189  547.275  561.001  572.504  582.221  574.633  560.602  547.698  537.483  531.062  527.087  528.419  528.471  526.237  522.686  520.215  518.193  517.430  517.475  517.344  518.412  517.723  517.572  517.677  517.729  517.495  517.331  516.231  516.091  514.563  512.791  511.567  510.283  509.431  506.415  504.225  501.915  499.067  497.056  494.569  491.569  490.010  486.788  484.242  483.293  481.941  476.005  473.029  472.012  469.158  466.394  464.149  462.204  459.311  458.041  455.342  453.959  451.658  450.791  448.514  447.750  447.219  446.526  445.788  444.945  444.440  444.565  450.237  445.019  445.514  447.679  447.234  448.160  448.887  450.536  452.408  453.137  454.718  456.899  459.187  461.002  462.325  464.321  466.139  468.589  470.117  472.241  473.887  476.721  477.780  479.032  480.500  482.066  482.722  483.747  484.864  484.683  485.123  483.687  483.113  481.969  480.485  478.153  475.564  472.823  469.809  465.745  461.647  457.056  452.745  446.327  439.645  433.134  426.396  418.861  410.640  401.939  393.000  384.837  374.588  369.343  357.340  344.087  333.504  322.274  311.217  300.278  288.601  277.400 
DATE 2017:042:01:51:17 obsn  34 az 162 el 50 freq_MHz  1420.4010 Tsys 171.000 Tant 454.877 vlsr   40.37 glat -19.187 glon 209.124 source Orion 
Fstart 1419.398 fstop 1421.404 spacing 0.009375 bw    2.400 fbw    2.000 MHz nfreq 256 nsam 5242880 npoint 214 integ   380 sigma    0.091 bsw 0
Spectrum    348 integration periods
 259.767  271.766  281.686  293.341  304.046  314.675  325.745  336.737  346.893  356.189  366.325  375.775  384.620  393.333  401.341  410.225  416.538  423.460  429.876  436.116  441.643  446.274  451.554  455.850  459.298  461.710  464.316  466.919  470.041  470.990  471.652  472.820  472.823  472.951  472.363  471.647  471.568  471.155  469.519  468.382  467.314  466.829  463.769  462.413  460.505  457.787  456.450  454.568  453.302  452.039  450.642  448.273  446.793  445.644  445.771  443.122  442.362  441.452  441.086  440.358  438.989  438.910  439.810  444.769  438.973  439.408  440.899  441.832  452.923  443.975  459.598  456.965  448.446  450.198  452.256  456.473  458.865  461.770  464.981  469.311  474.706  481.058  489.751  500.191  513.972  529.147  547.204  560.972  572.493  582.212  574.637  560.562  547.627  537.490  531.007  527.070  528.409  528.491  526.163  522.557  520.166  518.145  517.358  517.388  517.241  518.402  517.669  517.586  517.644  517.676  517.434  517.304  516.133  516.091  514.502  512.747  511.609  510.237  509.461  506.312  504.089  501.963  499.104  497.041  494.465  491.571  490.012  486.808  484.194  483.261  481.872  475.944  472.956  471.934  469.105  466.317  464.083  462.194  459.225  458.031  455.246  453.963  451.641  450.732  448.500  447.677  447.124  446.521  445.752  444.896  444.327  444.493  450.216  444.932  445.437  447.697  447.133  448.166  448.802  450.532  452.355  453.135  454.654  456.897  459.119  460.951  462.243  464.309  466.202  468.489  470.135  472.147  473.843  476.638  477.741  479.049  480.445  481.935  482.645  483.752  484.874  484.658  485.143  483.674  483.053  481.954  480.475  478.156  475.470  472.826  469.746  465.724  461.648  456.936  452.686  446.260  439.668  433.148  426.342  418.733  410.618  401.944  392.970  384.761  374.540  369.228  357.241  344.075  333.495  322.196  311.236  300.244  288.560  277.405 
DATE 2017:042:01:51:30 obsn  35 az 162 el 50 freq_MHz  1420.4010 Tsys 171.000 Tant 455.913 vlsr   40.37 glat -19.187 glon 209.124 source Orion 
Fstart 1419.398 fstop 1421.404 spacing 0.009375 bw    2.400 fbw    2.000 MHz nfreq 256 nsam 5242880 npoint 214 integ   391 sigma    0.089 bsw 0
Spectrum    358 integration periods
 259.723  271.734  281.644  293.278  303.986  314.645  325.703  336.662  346.794  356.096  366.310  375.717  384.556  393.276  401.236  410.150  416.479  423.424  429.809  436.018  441.560  446.243  451.475  455.716  459.212  461.620  464.325  466.789  469.985  470.883  471.566  472.843  472.763  472.878  472.272  471.557  471.514  471.050  469.463  468.237  467.176  466.752  463.699  462.323  460.397  457.724  456.394  454.485  453.219  451.923  450.569  448.275  446.744  445.524  445.683  442.981  442.339  441.382  441.006  440.294  438.925  438.826  439.720  444.704  438.946  439.307  440.795  441.792  452.731  443.890  459.440  456.945  448.348  450.130  452.223  456.465  458.749  461.671  464.957  469.253  474.692  480.993  489.646  500.051  513.918  529.117  547.062  560.814  572.313  582.076  574.452  560.345  547.488  537.393  530.925  527.008  528.353  528.470  526.058  522.452  520.023  518.108  517.285  517.273  517.107  518.343  517.607  517.530  517.514  517.689  517.355  517.159  516.092  515.991  514.401  512.674  511.485  510.168  509.422  506.288  504.086  501.962  499.080  496.966  494.374  491.556  489.906  486.662  484.165  483.214  481.795  475.903  472.972  471.907  469.048  466.223  464.062  462.192  459.114  457.921  455.197  453.908  451.633  450.670  448.444  447.588  447.062  446.380  445.677  444.824  444.251  444.461  450.189  444.867  445.363  447.652  447.050  448.075  448.763  450.474  452.330  453.057  454.625  456.782  458.994  460.883  462.097  464.285  466.071  468.501  470.101  472.082  473.813  476.560  477.703  478.954  480.354  481.925  482.514  483.738  484.852  484.662  485.053  483.613  483.002  481.853  480.333  477.980  475.448  472.820  469.662  465.706  461.675  456.936  452.659  446.252  439.588  433.210  426.266  418.689  410.532  401.961  392.912  384.745  374.471  369.063  357.089  343.993  333.424  322.150  311.191  300.236  288.516  277.410 
DATE 2017:042:01:51:44 obsn  36 az 162 el 50 freq_MHz  1420.4010 Tsys 171.000 Tant 454.267 vlsr   40.37 glat -19.187 glon 209.124 source Orion 
Fstart 1419.398 fstop 1421.404 spacing 0.009375 bw    2.400 fbw    2.000 MHz nfreq 256 nsam 5242880 npoint 214 integ   402 sigma    0.088 bsw 0
Spectrum    368 integration periods
 259.633  271.675  281.551  293.252  303.892  314.581  325.669  336.564  346.710  356.018  366.240  375.637  384.457  393.197  401.201  410.074  416.398  423.344  429.739  435.951  441.439  446.138  451.330  455.697  459.131  461.543  464.219  466.695  469.915  470.806  471.454  472.704  472.692  472.793  472.204  471.451  471.438  470.977  469.331  468.129  467.106  466.640  463.601  462.215  460.301  457.561  456.265  454.394  453.185  451.813  450.494  448.224  446.674  445.461  445.569  442.911  442.189  441.307  440.896  440.196  438.843  438.728  439.654  444.559  438.892  439.231  440.656  441.666  452.550  443.715  459.168  456.829  448.232  450.065  452.114  456.404  458.652  461.548  464.890  469.160  474.555  480.934  489.555  499.888  513.822  529.009  547.026  560.683  572.205  581.879  574.270  560.223  547.379  537.261  530.871  526.889  528.314  528.391  525.925  522.346  520.010  518.052  517.198  517.214  516.971  518.250  517.525  517.439  517.508  517.639  517.228  517.005  516.019  515.876  514.346  512.668  511.367  510.082  509.363  506.260  503.983  501.890  498.959  496.800  494.344  491.479  489.855  486.577  484.074  483.161  481.702  475.884  472.817  471.705  468.949  466.116  463.951  462.127  459.034  457.858  455.167  453.822  451.604  450.560  448.403  447.499  447.023  446.318  445.526  444.764  444.199  444.363  450.097  444.772  445.297  447.583  446.929  448.003  448.690  450.368  452.330  452.983  454.462  456.751  458.905  460.787  461.916  464.202  466.008  468.368  470.076  471.947  473.810  476.562  477.636  478.807  480.250  481.854  482.383  483.548  484.714  484.551  485.039  483.496  482.960  481.783  480.235  477.876  475.375  472.784  469.637  465.628  461.649  456.886  452.630  446.167  439.547  433.172  426.173  418.695  410.430  401.895  392.801  384.749  374.420  368.913  357.014  343.935  333.388  322.074  311.140  300.213  288.465  277.368 
DATE 2017:042:01:51:57 obsn  37 az 162 el 50 freq_MHz  1420.4010 Tsys 171.000 Tant 455.925 vlsr   40.37 glat -19.187 glon 209.124 source Orion 
Fstart 1419.398 fstop 1421.404 spacing 0.009375 bw    2.400 fbw    2.000 MHz nfreq 256 nsam 5242880 npoint 214 integ   413 sigma    0.087 bsw 0
Spectrum    378 integration periods
 259.565  271.638  281.483  293.218  303.841  314.514  325.568  336.539  346.662  356.003  366.209  375.528  384.345  393.125  401.133  410.030  416.368  423.273  429.587  435.826  441.376  446.097  451.277  455.653  459.066  461.506  464.149  466.608  469.814  470.715  471.394  472.553  472.664  472.714  472.093  471.401  471.342  470.961  469.346  468.053  467.010  466.583  463.556  462.088  460.205  457.566  456.232  454.249  453.089  451.749  450.422  448.081  446.562  445.366  445.477  442.861  442.097  441.286  440.819  440.151  438.817  438.669  439.595  444.546  438.835  439.213  440.546  441.663  452.373  443.507  458.985  456.808  448.180  450.006  452.026  456.311  458.588  461.485  464.810  469.123  474.514  480.875  489.510  499.897  513.721  529.003  546.940  560.584  572.090  581.769  574.085  560.064  547.268  537.132  530.746  526.780  528.162  528.314  525.846  522.277  519.864  517.977  517.127  517.158  516.874  518.200  517.464  517.436  517.412  517.589  517.128  516.924  515.895  515.770  514.230  512.617  511.327  510.098  509.266  506.138  503.884  501.801  498.908  496.712  494.347  491.450  489.756  486.573  483.939  483.131  481.629  475.873  472.767  471.545  468.918  466.038  463.887  462.079  459.051  457.833  455.116  453.722  451.584  450.488  448.418  447.462  446.950  446.301  445.444  444.709  444.129  444.288  450.115  444.742  445.348  447.583  446.897  447.911  448.609  450.255  452.281  452.925  454.438  456.732  458.776  460.745  461.899  464.103  465.955  468.291  469.991  471.863  473.740  476.504  477.563  478.818  480.217  481.762  482.391  483.459  484.646  484.552  485.018  483.430  482.901  481.717  480.235  477.843  475.342  472.748  469.562  465.565  461.622  456.867  452.617  446.058  439.535  433.095  426.086  418.577  410.430  401.848  392.776  384.736  374.414  368.813  356.930  343.891  333.287  322.039  311.095  300.168  288.379  277.318 
DATE 2017:042:01:52:10 obsn  38 az 162 el 50 freq_MHz  1420.4010 Tsys 171.000 Tant 455.721 vlsr   40.37 glat -19.187 glon 209.124 source Orion 
Fstart 1419.398 fstop 1421.404 spacing 0.009375 bw    2.400 fbw    2.000 MHz nfreq 256 nsam 5242880 npoint 214 integ   424 sigma    0.086 bsw 0
Spectrum    388 integration periods
 259.533  271.592  281.429  293.201  303.779  314.422  325.526  336.528  346.580  355.966  366.102  375.494  384.298  393.108  400.988  409.932  416.286  423.163  429.593  435.797  441.326  446.027  451.284  455.597  458.985  461.484  464.109  466.568  469.835  470.696  471.346  472.499  472.594  472.624  472.028  471.332  471.293  470.882  469.295  468.006  466.915  466.546  463.547  462.061  460.126  457.557  456.139  454.223  453.013  451.735  450.378  447.998  446.552  445.264  445.415  442.801  442.018  441.168  440.755  440.092  438.806  438.608  439.503  444.523  438.797  439.210  440.467  441.577  452.206  443.525  458.746  456.780  448.127  449.962  451.998  456.325  458.494  461.351  464.729  469.122  474.493  480.841  489.460  499.885  513.606  528.947  546.885  560.477  572.031  581.657  573.977  560.011  547.185  537.063  530.756  526.697  528.062  528.223  525.836  522.148  519.683  517.933  517.045  517.059  516.831  518.139  517.424  517.283  517.401  517.607  517.120  516.905  515.852  515.700  514.230  512.594  511.328  510.048  509.317  506.070  503.764  501.790  498.841  496.694  494.238  491.467  489.725  486.559  483.878  483.113  481.534  475.810  472.712  471.486  468.757  466.033  463.870  462.049  458.937  457.816  455.115  453.694  451.494  450.442  448.371  447.385  446.869  446.246  445.379  444.680  444.091  444.222  450.085  444.691  445.307  447.520  446.915  447.872  448.579  450.190  452.302  452.893  454.413  456.662  458.748  460.749  461.855  464.113  465.921  468.209  469.975  471.836  473.615  476.429  477.524  478.800  480.230  481.716  482.325  483.406  484.586  484.511  485.034  483.411  482.867  481.593  480.218  477.795  475.254  472.761  469.557  465.508  461.548  456.830  452.620  446.043  439.474  433.067  426.080  418.527  410.382  401.824  392.764  384.712  374.341  368.701  356.858  343.845  333.319  322.034  311.083  300.161  288.364  277.297 
DATE 2017:042:01:52:23 obsn  39 az 162 el 50 freq_MHz  1420.4010 Tsys 171.000 Tant 455.375 vlsr   40.37 glat -19.187 glon 209.124 source Orion 
Fstart 1419.398 fstop 1421.404 spacing 0.009375 bw    2.400 fbw    2.000 MHz nfreq 256 nsam 5242880 npoint 214 integ   435 sigma    0.085 bsw 0
Spectrum    398 integration periods
 259.511  271.561  281.437  293.167  303.722  314.446  325.471  336.523  346.503  355.923  366.067  375.433  384.224  393.019  400.949  409.864  416.261  423.155  429.502  435.754  441.332  446.038  451.226  455.552  458.935  461.353  464.054  466.512  469.814  470.656  471.335  472.419  472.523  472.588  471.885  471.338  471.234  470.815  469.215  467.924  466.782  466.417  463.491  461.964  460.075  457.498  456.066  454.116  452.967  451.687  450.326  447.906  446.516  445.204  445.347  442.761  441.951  441.165  440.691  439.988  438.744  438.537  439.547  444.460  438.787  439.168  440.427  441.529  452.034  443.431  458.604  456.674  448.091  449.913  452.006  456.310  458.460  461.319  464.687  469.056  474.503  480.843  489.346  499.794  513.565  528.974  546.850  560.505  571.973  581.536  573.862  559.969  547.116  536.989  530.648  526.650  528.007  528.228  525.775  522.128  519.642  517.900  516.981  516.997  516.738  518.087  517.428  517.235  517.315  517.574  517.015  516.818  515.784  515.603  514.225  512.562  511.277  509.956  509.268  506.113  503.775  501.771  498.854  496.653  494.131  491.512  489.717  486.555  483.793  483.075  481.517  475.808  472.678  471.474  468.736  466.040  463.781  461.934  458.900  457.802  455.066  453.646  451.452  450.427  448.403  447.416  446.839  446.183  445.344  444.644  444.054  444.171  450.002  444.659  445.284  447.444  446.881  447.782  448.535  450.095  452.309  452.890  454.371  456.617  458.726  460.660  461.823  464.050  465.883  468.171  469.940  471.816  473.567  476.415  477.424  478.772  480.225  481.684  482.279  483.431  484.591  484.514  484.964  483.376  482.920  481.553  480.130  477.715  475.252  472.693  469.489  465.492  461.532  456.788  452.598  446.018  439.480  432.972  426.012  418.558  410.395  401.823  392.708  384.684  374.312  368.593  356.837  343.867  333.250  322.005  311.047  300.094  288.330  277.267 
DATE 2017:042:01:52:36 obsn  40 az 162 el 50 freq_MHz  1420.4010 Tsys 171.000 Tant 457.335 vlsr   40.37 glat -19.187 glon 209.124 source Orion 
Fstart 1419.398 fstop 1421.404 spacing 0.009375 bw    2.400 fbw    2.000 MHz nfreq 256 nsam 5242880 npoint 214 integ   446 sigma    0.084 bsw 0
Spectrum    408 integration periods
 259.487  271.532  281.414  293.152  303.654  314.391  325.432  336.513  346.477  355.888  366.044  375.443  384.184  392.990  400.934  409.826  416.248  423.066  429.429  435.720  441.340  446.017  451.226  455.573  458.909  461.313  464.025  466.470  469.821  470.571  471.337  472.352  472.528  472.578  471.871  471.268  471.209  470.796  469.199  467.974  466.686  466.358  463.509  461.949  460.059  457.571  456.027  454.095  452.964  451.642  450.305  447.893  446.449  445.173  445.390  442.791  441.929  441.191  440.665  439.971  438.685  438.487  439.557  444.402  438.776  439.135  440.379  441.531  451.964  443.353  458.474  456.607  448.041  449.858  451.905  456.370  458.476  461.236  464.672  469.099  474.532  480.875  489.258  499.766  513.574  528.958  546.790  560.502  571.912  581.476  573.854  559.899  547.107  537.015  530.620  526.582  528.011  528.197  525.737  522.045  519.586  517.874  516.880  516.971  516.654  518.068  517.351  517.206  517.314  517.595  517.006  516.806  515.787  515.595  514.182  512.536  511.258  509.918  509.241  506.005  503.759  501.741  498.847  496.639  494.125  491.409  489.720  486.517  483.744  483.038  481.489  475.750  472.649  471.523  468.763  466.034  463.767  461.924  458.889  457.820  455.047  453.585  451.419  450.378  448.417  447.391  446.813  446.159  445.416  444.604  444.085  444.196  449.988  444.676  445.247  447.311  446.838  447.709  448.539  450.065  452.345  452.878  454.348  456.619  458.745  460.652  461.810  464.053  465.933  468.189  469.927  471.755  473.576  476.473  477.442  478.771  480.187  481.677  482.281  483.391  484.574  484.526  484.976  483.354  482.877  481.531  480.151  477.781  475.274  472.646  469.529  465.459  461.558  456.769  452.627  446.044  439.537  432.994  425.980  418.575  410.443  401.829  392.684  384.690  374.347  368.563  356.787  343.815  333.228  322.013  311.068  300.076  288.323  277.238 
DATE 2017:042:01:52:49 obsn  41 az 162 el 50 freq_MHz  1420.4010 Tsys 171.000 Tant 455.948 vlsr   40.37 glat -19.187 glon 209.124 source Orion 
Fstart 1419.398 fstop 1421.404 spacing 0.009375 bw    2.400 fbw    2.000 MHz nfreq 256 nsam 5242880 npoint 214 integ   457 sigma    0.083 bsw 0
Spectrum    418 integration periods
 259.464  271.482  281.379  293.107  303.616  314.381  325.369  336.498  346.467  355.857  366.006  375.431  384.181  392.957  400.920  409.785  416.207  423.019  429.437  435.732  441.315  445.979  451.174  455.551  458.884  461.285  464.003  466.400  469.843  470.567  471.307  472.275  472.477  472.528  471.851  471.258  471.182  470.811  469.159  467.926  466.602  466.264  463.462  461.884  459.973  457.520  455.981  453.976  452.890  451.589  450.251  447.874  446.386  445.136  445.316  442.815  441.865  441.107  440.640  439.923  438.640  438.496  439.584  444.362  438.800  439.148  440.340  441.516  451.817  443.351  458.305  456.555  447.995  449.770  451.872  456.322  458.506  461.239  464.680  469.074  474.482  480.838  489.207  499.742  513.636  528.960  546.743  560.489  571.893  581.445  573.894  559.922  547.091  536.948  530.616  526.506  527.996  528.141  525.654  521.924  519.568  517.864  516.871  516.920  516.602  518.083  517.310  517.133  517.281  517.605  516.923  516.829  515.722  515.564  514.150  512.573  511.311  509.887  509.327  506.024  503.801  501.681  498.802  496.605  494.149  491.346  489.677  486.579  483.732  483.101  481.448  475.682  472.642  471.474  468.671  466.061  463.729  461.995  458.841  457.844  454.993  453.578  451.429  450.376  448.386  447.360  446.757  446.104  445.367  444.538  443.995  444.137  449.965  444.646  445.212  447.298  446.841  447.673  448.534  450.074  452.306  452.880  454.315  456.576  458.693  460.571  461.810  464.053  465.832  468.190  469.887  471.716  473.556  476.565  477.469  478.786  480.200  481.622  482.291  483.410  484.559  484.542  484.958  483.382  482.886  481.564  480.150  477.829  475.295  472.652  469.540  465.448  461.541  456.833  452.608  446.000  439.528  432.999  425.914  418.535  410.405  401.811  392.643  384.670  374.296  368.432  356.722  343.803  333.220  321.962  311.007  300.106  288.297  277.252 
DATE 2017:042:01:53:02 obsn  42 az 162 el 50 freq_MHz  1420.4010 Tsys 171.000 Tant 455.206 vlsr   40.37 glat -19.187 glon 209.124 source Orion 
Fstart 1419.398 fstop 1421.404 spacing 0.009375 bw    2.400 fbw    2.000 MHz nfreq 256 nsam 5242880 npoint 214 integ   467 sigma    0.082 bsw 0
Spectrum    428 integration periods
 259.406  271.444  281.347  293.089  303.591  314.349  325.296  336.394  346.421  355.781  365.959  375.438  384.151  392.947  400.899  409.692  416.174  423.020  429.357  435.648  441.307  445.894  451.144  455.491  458.874  461.284  464.004  466.375  469.885  470.504  471.248  472.209  472.408  472.486  471.807  471.225  471.103  470.732  469.041  467.869  466.511  466.224  463.373  461.815  459.899  457.423  455.879  453.891  452.833  451.542  450.190  447.793  446.322  445.059  445.257  442.762  441.830  441.025  440.595  439.853  438.578  438.479  439.518  444.285  438.764  439.161  440.209  441.443  451.664  443.316  458.023  456.456  447.948  449.723  451.831  456.269  458.437  461.218  464.669  469.032  474.465  480.765  489.168  499.772  513.594  529.013  546.773  560.401  571.911  581.455  573.910  559.926  546.999  536.958  530.542  526.497  527.961  528.161  525.614  521.920  519.557  517.770  516.780  516.859  516.551  518.087  517.245  517.086  517.259  517.613  516.889  516.727  515.630  515.543  514.106  512.513  511.332  509.816  509.298  506.051  503.819  501.655  498.816  496.517  494.093  491.286  489.675  486.561  483.671  483.059  481.458  475.700  472.615  471.473  468.680  466.000  463.737  461.930  458.849  457.878  454.922  453.502  451.368  450.312  448.343  447.335  446.707  446.047  445.293  444.489  443.965  444.055  449.904  444.540  445.090  447.267  446.785  447.644  448.490  449.985  452.323  452.845  454.299  456.531  458.689  460.538  461.783  463.960  465.755  468.138  469.838  471.687  473.479  476.538  477.392  478.778  480.152  481.534  482.271  483.398  484.500  484.571  484.902  483.398  482.855  481.467  480.141  477.918  475.281  472.629  469.530  465.398  461.561  456.774  452.551  445.979  439.493  432.967  425.851  418.498  410.353  401.774  392.580  384.613  374.239  368.318  356.681  343.787  333.212  321.953  310.999  300.101  288.258  277.216 
DATE 2017:042:01:53:15 obsn  43 az 162 el 50 freq_MHz  1420.4010 Tsys 171.000 Tant 454.367 vlsr   40.37 glat -19.187 glon 209.124 source Orion 
Fstart 1419.398 fstop 1421.404 spacing 0.009375 bw    2.400 fbw    2.000 MHz nfreq 256 nsam 5242880 npoint 214 integ   478 sigma    0.081 bsw 0
Spectrum    438 integration periods
 259.358  271.379  281.326  293.009  303.535  314.328  325.229  336.351  346.359  355.713  365.910  375.370  384.113  392.911  400.832  409.679  416.109  422.995  429.350  435.605  441.309  445.834  451.068  455.353  458.784  461.190  463.984  466.324  469.808  470.383  471.171  472.143  472.331  472.483  471.774  471.154  471.060  470.674  469.044  467.793  466.430  466.157  463.311  461.768  459.835  457.436  455.797  453.847  452.737  451.515  450.138  447.680  446.217  444.997  445.184  442.739  441.773  440.910  440.518  439.791  438.515  438.418  439.414  444.160  438.669  439.119  440.112  441.393  451.511  443.246  457.816  456.329  447.924  449.704  451.851  456.195  458.373  461.121  464.622  468.946  474.382  480.646  489.087  499.721  513.547  529.003  546.735  560.374  571.919  581.489  573.975  559.932  546.941  536.847  530.511  526.384  527.893  528.048  525.612  521.881  519.444  517.691  516.605  516.702  516.462  518.044  517.157  517.056  517.162  517.580  516.830  516.646  515.521  515.466  514.071  512.438  511.277  509.723  509.224  506.022  503.794  501.631  498.738  496.438  494.044  491.168  489.648  486.496  483.616  482.973  481.396  475.609  472.585  471.490  468.645  465.945  463.667  461.901  458.822  457.808  454.876  453.470  451.320  450.269  448.333  447.325  446.659  445.955  445.213  444.437  443.872  443.981  449.884  444.480  445.104  447.210  446.701  447.574  448.439  449.955  452.335  452.825  454.236  456.487  458.635  460.486  461.731  463.907  465.738  468.072  469.775  471.663  473.499  476.500  477.363  478.728  480.099  481.444  482.183  483.343  484.454  484.532  484.877  483.381  482.816  481.387  480.105  477.897  475.280  472.574  469.416  465.348  461.517  456.745  452.477  445.930  439.473  432.917  425.776  418.472  410.279  401.723  392.544  384.608  374.206  368.231  356.618  343.730  333.135  321.924  310.982  300.111  288.220  277.200 
DATE 2017:042:01:53:28 obsn  44 az 162 el 50 freq_MHz  1420.4010 Tsys 171.000 Tant 454.344 vlsr   40.37 glat -19.187 glon 209.124 source Orion 
Fstart 1419.398 fstop 1421.404 spacing 0.009375 bw    2.400 fbw    2.000 MHz nfreq 256 nsam 5242880 npoint 214 integ   489 sigma    0.080 bsw 0
Spectrum    448 integration periods
 259.353  271.310  281.264  292.957  303.501  314.274  325.175  336.293  346.255  355.680  365.843  375.289  384.064  392.857  400.738  409.578  416.086  422.913  429.280  435.525  441.270  445.779  451.007  455.305  458.785  461.123  463.945  466.318  469.733  470.268  471.061  472.029  472.235  472.374  471.734  471.092  471.001  470.643  468.901  467.779  466.328  466.138  463.180  461.717  459.725  457.332  455.719  453.842  452.634  451.439  450.110  447.621  446.117  444.953  445.116  442.645  441.703  440.836  440.441  439.727  438.422  438.344  439.334  444.063  438.557  439.028  440.109  441.315  451.394  443.191  457.554  456.238  447.824  449.664  451.816  456.148  458.322  461.074  464.564  468.906  474.337  480.614  489.061  499.642  513.476  528.940  546.718  560.411  571.860  581.528  573.934  559.862  546.904  536.823  530.422  526.320  527.857  527.997  525.529  521.809  519.359  517.595  516.504  516.628  516.361  517.989  517.078  516.987  517.127  517.559  516.818  516.630  515.401  515.432  513.970  512.351  511.173  509.689  509.176  505.921  503.726  501.560  498.701  496.376  493.982  491.126  489.615  486.456  483.568  482.931  481.332  475.517  472.596  471.390  468.607  465.866  463.597  461.826  458.785  457.760  454.832  453.389  451.263  450.160  448.320  447.246  446.626  445.941  445.162  444.395  443.868  443.943  449.807  444.412  445.048  447.154  446.665  447.526  448.374  449.954  452.320  452.746  454.159  456.414  458.603  460.475  461.648  463.923  465.727  468.021  469.760  471.621  473.438  476.464  477.344  478.717  480.033  481.370  482.083  483.267  484.434  484.518  484.874  483.294  482.726  481.326  480.044  477.880  475.153  472.505  469.393  465.275  461.401  456.661  452.398  445.904  439.434  432.866  425.714  418.396  410.168  401.636  392.456  384.577  374.158  368.166  356.547  343.681  333.091  321.898  310.941  300.099  288.216  277.174 
DATE 2017:042:01:53:42 obsn  45 az 162 el 50 freq_MHz  1420.4010 Tsys 171.000 Tant 455.061 vlsr   40.37 glat -19.187 glon 209.124 source Orion 
Fstart 1419.398 fstop 1421.404 spacing 0.009375 bw    2.400 fbw    2.000 MHz nfreq 256 nsam 5242880 npoint 214 integ   500 sigma    0.079 bsw 0
Spectrum    458 integration periods
 259.315  271.276  281.223  292.907  303.477  314.217  325.127  336.259  346.229  355.649  365.756  375.209  384.039  392.839  400.678  409.492  415.986  422.836  429.269  435.435  441.200  445.701  450.917  455.210  458.688  461.074  463.909  466.252  469.704  470.204  471.009  471.975  472.157  472.339  471.742  471.088  470.917  470.579  468.892  467.756  466.252  466.132  463.147  461.675  459.737  457.306  455.687  453.888  452.624  451.426  450.053  447.570  446.057  444.856  445.059  442.531  441.581  440.787  440.360  439.674  438.374  438.276  439.309  444.024  438.493  438.993  440.060  441.225  451.288  443.090  457.448  456.143  447.764  449.581  451.718  456.076  458.276  460.958  464.496  468.793  474.310  480.498  489.014  499.549  513.445  528.909  546.730  560.409  571.812  581.546  573.953  559.935  546.948  536.861  530.379  526.345  527.867  527.937  525.523  521.763  519.288  517.546  516.558  516.619  516.258  517.981  516.987  516.969  517.103  517.516  516.768  516.563  515.408  515.302  513.859  512.256  511.146  509.597  509.123  505.836  503.635  501.492  498.644  496.263  493.930  491.068  489.539  486.457  483.473  482.862  481.267  475.498  472.576  471.338  468.595  465.799  463.509  461.770  458.735  457.702  454.776  453.335  451.192  450.097  448.332  447.225  446.590  445.903  445.134  444.315  443.856  443.898  449.781  444.354  445.014  447.002  446.643  447.488  448.330  449.879  452.321  452.717  454.104  456.424  458.526  460.423  461.656  463.874  465.668  467.932  469.688  471.537  473.403  476.407  477.350  478.710  480.031  481.356  482.037  483.167  484.295  484.437  484.799  483.240  482.636  481.277  479.956  477.814  475.121  472.450  469.394  465.290  461.360  456.587  452.413  445.848  439.371  432.863  425.674  418.335  410.137  401.620  392.448  384.579  374.120  368.116  356.518  343.650  333.057  321.871  310.896  300.078  288.216  277.162 
DATE 2017:042:01:53:55 obsn  46 az 162 el 50 freq_MHz  1420.4010 Tsys 171.000 Tant 453.903 vlsr   40.37 glat -19.187 glon 209.124 source Orion 
Fstart 1419.398 fstop 1421.404 spacing 0.009375 bw    2.400 fbw    2.000 MHz nfreq 256 nsam 5242880 npoint 214 integ   511 sigma    0.078 bsw 0
Spectrum    468 integration periods
 259.284  271.226  281.188  292.832  303.449  314.180  325.078  336.255  346.148  355.604  365.730  375.155  383.987  392.763  400.596  409.455  415.976  422.737  429.190  435.332  441.150  445.622  450.836  455.126  458.600  461.005  463.832  466.239  469.683  470.120  470.929  471.904  472.131  472.283  471.682  470.992  470.897  470.527  468.880  467.705  466.158  466.071  463.063  461.529  459.642  457.242  455.616  453.840  452.539  451.396  449.957  447.542  445.989  444.789  445.057  442.481  441.512  440.750  440.251  439.677  438.309  438.221  439.266  443.902  438.433  438.928  439.997  441.134  451.146  443.034  457.269  456.030  447.726  449.455  451.650  456.051  458.269  460.884  464.409  468.763  474.227  480.463  488.961  499.471  513.445  528.851  546.717  560.428  571.823  581.519  573.965  559.942  546.975  536.835  530.364  526.313  527.852  527.902  525.402  521.724  519.156  517.503  516.550  516.605  516.194  517.921  516.870  516.945  517.004  517.430  516.659  516.483  515.372  515.230  513.757  512.167  511.023  509.485  509.120  505.750  503.591  501.396  498.594  496.182  493.872  490.992  489.508  486.436  483.425  482.825  481.276  475.431  472.463  471.276  468.507  465.734  463.462  461.705  458.727  457.680  454.750  453.269  451.159  450.088  448.307  447.166  446.536  445.880  445.083  444.275  443.801  443.895  449.746  444.313  444.967  447.100  446.604  447.411  448.281  449.871  452.332  452.689  454.063  456.414  458.451  460.356  461.554  463.793  465.546  467.872  469.642  471.501  473.380  476.374  477.234  478.631  479.976  481.272  481.948  483.041  484.245  484.436  484.706  483.146  482.615  481.180  479.844  477.783  475.058  472.449  469.307  465.210  461.396  456.604  452.338  445.818  439.340  432.823  425.636  418.255  410.093  401.566  392.435  384.550  374.119  368.028  356.481  343.614  333.008  321.844  310.823  300.061  288.185  277.128 
DATE 2017:042:01:54:16 obsn  47 az 163 el 50 freq_MHz  1420.4010 Tsys 171.000 Tant 453.686 vlsr   40.37 glat -19.187 glon 209.124 source Orion 
Fstart 1419.398 fstop 1421.404 spacing 0.009375 bw    2.400 fbw    2.000 MHz nfreq 256 nsam 5242880 npoint 214 integ   522 sigma    0.077 bsw 0
Spectrum    478 integration periods
 259.265  271.173  281.127  292.806  303.421  314.116  325.026  336.197  346.094  355.547  365.673  375.120  383.898  392.698  400.570  409.431  415.910  422.721  429.101  435.182  441.082  445.553  450.805  455.100  458.549  460.960  463.772  466.179  469.609  469.969  470.848  471.813  472.082  472.174  471.630  470.968  470.886  470.460  468.811  467.633  466.056  466.013  462.971  461.389  459.547  457.158  455.534  453.705  452.456  451.312  449.910  447.514  445.897  444.721  444.977  442.378  441.443  440.615  440.156  439.581  438.253  438.147  439.168  443.813  438.358  438.863  439.926  441.073  450.946  442.880  457.033  456.014  447.648  449.332  451.597  456.060  458.197  460.825  464.360  468.679  474.114  480.373  488.854  499.445  513.379  528.756  546.576  560.297  571.657  581.361  573.895  559.921  546.853  536.738  530.289  526.272  527.758  527.832  525.359  521.666  519.096  517.480  516.497  516.575  516.141  517.827  516.809  516.850  516.896  517.357  516.591  516.342  515.273  515.188  513.642  512.065  510.929  509.441  509.029  505.696  503.493  501.354  498.466  496.112  493.774  490.899  489.434  486.353  483.393  482.767  481.174  475.390  472.427  471.228  468.438  465.666  463.402  461.657  458.684  457.626  454.715  453.226  451.085  450.036  448.305  447.145  446.517  445.841  445.008  444.258  443.743  443.858  449.721  444.239  444.907  447.056  446.568  447.360  448.243  449.828  452.288  452.627  454.002  456.339  458.381  460.315  461.530  463.752  465.437  467.844  469.624  471.433  473.297  476.331  477.165  478.599  479.932  481.163  481.908  482.951  484.143  484.408  484.633  483.065  482.557  481.072  479.771  477.677  474.982  472.364  469.242  465.089  461.323  456.536  452.361  445.780  439.270  432.769  425.575  418.179  410.016  401.537  392.377  384.496  374.049  367.920  356.347  343.586  332.960  321.774  310.802  300.053  288.152  277.091 
DATE 2017:042:01:54:29 obsn  48 az 163 el 50 freq_MHz  1420.4010 Tsys 171.000 Tant 453.627 vlsr   40.37 glat -19.187 glon 209.124 source Orion 
Fstart 1419.398 fstop 1421.404 spacing 0.009375 bw    2.400 fbw    2.000 MHz nfreq 256 nsam 5242880 npoint 214 integ   533 sigma    0.076 bsw 0
Spectrum    488 integration periods
 259.231  271.166  281.097  292.752  303.366  314.051  324.987  336.148  346.088  355.488  365.578  375.051  383.839  392.657  400.567  409.387  415.809  422.701  429.057  435.089  441.005  445.474  450.722  455.093  458.466  460.900  463.710  466.124  469.584  469.894  470.743  471.688  472.063  472.084  471.554  470.965  470.784  470.413  468.793  467.533  465.974  465.944  462.892  461.274  459.507  457.147  455.460  453.675  452.325  451.202  449.848  447.450  445.828  444.639  444.865  442.301  441.370  440.491  440.111  439.550  438.186  438.066  439.046  443.716  438.256  438.793  439.859  441.031  450.775  442.748  456.782  455.920  447.548  449.277  451.473  455.945  458.151  460.729  464.256  468.645  474.048  480.348  488.691  499.304  513.353  528.626  546.450  560.167  571.523  581.261  573.777  559.821  546.778  536.604  530.245  526.198  527.667  527.810  525.298  521.529  519.059  517.397  516.416  516.518  516.092  517.787  516.724  516.758  516.857  517.323  516.531  516.235  515.224  515.106  513.552  511.969  510.847  509.331  508.914  505.666  503.436  501.217  498.386  495.997  493.653  490.863  489.420  486.301  483.336  482.684  481.136  475.328  472.347  471.115  468.393  465.566  463.295  461.658  458.633  457.567  454.670  453.168  451.066  450.004  448.232  447.085  446.442  445.806  444.987  444.232  443.647  443.805  449.713  444.226  444.877  446.982  446.496  447.305  448.240  449.832  452.247  452.547  453.936  456.316  458.339  460.268  461.444  463.672  465.374  467.779  469.578  471.364  473.268  476.264  477.141  478.550  479.917  481.095  481.904  482.874  484.161  484.308  484.569  482.983  482.491  480.970  479.718  477.605  474.934  472.222  469.204  465.065  461.255  456.464  452.333  445.744  439.228  432.709  425.468  418.098  409.978  401.470  392.332  384.487  374.020  367.824  356.265  343.531  332.909  321.734  310.733  300.016  288.145  277.060 
DATE 2017:042:01:54:42 obsn  49 az 163 el 50 freq_MHz  1420.4010 Tsys 171.000 Tant 454.483 vlsr   40.37 glat -19.187 glon 209.124 source Orion 
Fstart 1419.398 fstop 1421.404 spacing 0.009375 bw    2.400 fbw    2.000 MHz nfreq 256 nsam 5242880 npoint 214 integ   544 sigma    0.076 bsw 0
Spectrum    498 integration periods
 259.199  271.125  281.046  292.685  303.327  314.002  324.949  336.117  346.036  355.430  365.496  375.039  383.748  392.579  400.523  409.350  415.739  422.667  429.013  434.999  440.936  445.430  450.691  454.980  458.385  460.814  463.640  466.051  469.553  469.825  470.617  471.599  471.990  472.042  471.518  470.894  470.741  470.329  468.688  467.474  465.889  465.868  462.846  461.187  459.415  457.096  455.360  453.624  452.244  451.176  449.786  447.327  445.721  444.564  444.784  442.263  441.292  440.423  440.015  439.476  438.128  437.961  438.994  443.632  438.215  438.705  439.777  440.954  450.646  442.606  456.573  455.866  447.432  449.221  451.416  455.932  458.090  460.664  464.176  468.591  474.039  480.271  488.628  499.204  513.290  528.549  546.368  560.157  571.472  581.216  573.652  559.752  546.703  536.512  530.114  526.052  527.630  527.780  525.263  521.445  519.027  517.315  516.302  516.398  516.018  517.708  516.637  516.700  516.834  517.252  516.476  516.164  515.216  515.099  513.509  511.926  510.746  509.235  508.852  505.573  503.377  501.133  498.271  495.912  493.577  490.838  489.348  486.282  483.264  482.646  481.068  475.270  472.266  471.026  468.269  465.486  463.226  461.598  458.610  457.565  454.579  453.126  451.020  449.987  448.211  447.039  446.346  445.782  444.988  444.208  443.570  443.780  449.691  444.198  444.819  446.981  446.431  447.233  448.188  449.758  452.265  452.512  453.856  456.256  458.276  460.218  461.433  463.579  465.304  467.699  469.452  471.307  473.184  476.147  477.116  478.462  479.823  481.046  481.848  482.818  484.048  484.232  484.531  482.925  482.425  480.933  479.704  477.467  474.937  472.159  469.171  465.020  461.250  456.441  452.325  445.702  439.176  432.686  425.436  418.065  409.896  401.483  392.281  384.453  374.001  367.730  356.169  343.483  332.851  321.678  310.701  299.964  288.109  277.039 
DATE 2017:042:01:54:55 obsn  50 az 163 el 50 freq_MHz  1420.4010 Tsys 171.000 Tant 455.929 vlsr   40.37 glat -19.187 glon 209.124 source Orion 
Fstart 1419.398 fstop 1421.404 spacing 0.009375 bw    2.400 fbw    2.000 MHz nfreq 256 nsam 5242880 npoint 214 integ   555 sigma    0.075 bsw 0
Spectrum    508 integration periods
 259.146  271.085  280.992  292.665  303.291  313.957  324.899  336.102  346.002  355.371  365.454  374.991  383.750  392.547  400.444  409.317  415.670  422.600  428.979  434.986  440.892  445.416  450.668  454.878  458.334  460.778  463.559  466.025  469.533  469.741  470.543  471.549  471.933  471.973  471.477  470.856  470.698  470.256  468.611  467.440  465.818  465.835  462.784  461.123  459.332  457.050  455.296  453.614  452.188  451.133  449.787  447.267  445.665  444.497  444.720  442.188  441.218  440.406  439.974  439.371  438.063  437.912  438.973  443.576  438.164  438.665  439.711  440.831  450.442  442.608  456.397  455.873  447.320  449.146  451.413  455.925  458.039  460.626  464.162  468.523  473.949  480.270  488.563  499.170  513.255  528.536  546.314  560.146  571.391  581.169  573.565  559.715  546.644  536.455  530.042  526.011  527.587  527.798  525.230  521.355  518.972  517.281  516.237  516.400  516.020  517.717  516.585  516.670  516.805  517.203  516.436  516.085  515.143  515.035  513.442  511.886  510.695  509.200  508.784  505.556  503.320  501.101  498.239  495.872  493.561  490.835  489.331  486.236  483.208  482.639  480.996  475.225  472.206  470.972  468.246  465.414  463.210  461.580  458.529  457.621  454.559  453.079  450.989  449.973  448.177  446.977  446.312  445.759  444.888  444.180  443.542  443.809  449.671  444.117  444.750  446.879  446.399  447.169  448.159  449.736  452.239  452.414  453.827  456.247  458.280  460.204  461.409  463.500  465.291  467.668  469.431  471.218  473.111  476.156  477.052  478.370  479.760  481.058  481.802  482.812  484.041  484.217  484.488  482.898  482.387  480.888  479.701  477.382  474.902  472.168  469.153  465.002  461.218  456.376  452.274  445.717  439.144  432.646  425.397  418.074  409.870  401.469  392.266  384.415  373.992  367.665  356.069  343.453  332.813  321.647  310.665  299.951  288.075  277.011 
DATE 2017:042:01:55:08 obsn  51 az 163 el 50 freq_MHz  1420.4010 Tsys 171.000 Tant 454.253 vlsr   40.37 glat -19.187 glon 209.124 source Orion 
Fstart 1419.398 fstop 1421.404 spacing 0.009375 bw    2.400 fbw    2.000 MHz nfreq 256 nsam 5242880 npoint 214 integ   566 sigma    0.074 bsw 0
Spectrum    518 integration periods
 259.144  271.050  280.988  292.639  303.257  313.919  324.852  336.046  345.967  355.326  365.445  374.939  383.760  392.536  400.415  409.277  415.656  422.555  428.961  434.975  440.877  445.382  450.591  454.852  458.316  460.768  463.550  465.995  469.523  469.687  470.518  471.535  471.901  471.878  471.443  470.897  470.663  470.210  468.573  467.430  465.783  465.792  462.714  461.113  459.261  457.023  455.291  453.599  452.120  451.109  449.751  447.242  445.610  444.450  444.683  442.197  441.183  440.386  439.886  439.378  438.013  437.859  438.943  443.542  438.149  438.638  439.669  440.779  450.347  442.574  456.280  455.928  447.268  449.123  451.371  455.888  457.950  460.654  464.136  468.510  473.900  480.266  488.512  499.180  513.202  528.566  546.298  560.115  571.395  581.110  573.572  559.689  546.658  536.465  530.004  526.020  527.565  527.711  525.211  521.253  518.957  517.220  516.169  516.306  515.932  517.688  516.585  516.597  516.715  517.170  516.427  516.044  515.127  515.032  513.378  511.815  510.661  509.166  508.748  505.538  503.322  501.058  498.238  495.867  493.579  490.828  489.339  486.157  483.225  482.645  480.957  475.179  472.225  470.994  468.217  465.419  463.169  461.565  458.541  457.610  454.518  453.052  450.998  450.007  448.150  446.992  446.286  445.744  444.893  444.160  443.522  443.799  449.664  444.080  444.755  446.907  446.413  447.141  448.105  449.698  452.193  452.399  453.810  456.215  458.293  460.160  461.354  463.479  465.289  467.678  469.377  471.185  473.070  476.196  476.991  478.362  479.714  481.014  481.807  482.773  484.040  484.172  484.494  482.861  482.341  480.861  479.722  477.455  474.915  472.143  469.153  464.995  461.173  456.354  452.273  445.692  439.115  432.630  425.399  418.043  409.861  401.430  392.235  384.398  373.986  367.606  356.021  343.448  332.819  321.603  310.627  299.924  288.043  277.019 
DATE 2017:042:01:55:21 obsn  52 az 163 el 50 freq_MHz  1420.4010 Tsys 171.000 Tant 454.673 vlsr   40.37 glat -19.187 glon 209.124 source Orion 
Fstart 1419.398 fstop 1421.404 spacing 0.009375 bw    2.400 fbw    2.000 MHz nfreq 256 nsam 5242880 npoint 214 integ   577 sigma    0.074 bsw 0
Spectrum    528 integration periods
 259.087  270.997  280.928  292.571  303.248  313.867  324.798  336.018  345.916  355.229  365.400  374.901  383.711  392.472  400.380  409.231  415.620  422.538  428.949  434.941  440.838  445.367  450.544  454.761  458.314  460.740  463.498  465.972  469.501  469.659  470.476  471.521  471.865  471.817  471.373  470.817  470.619  470.188  468.547  467.361  465.693  465.722  462.680  461.031  459.175  456.954  455.260  453.550  452.064  451.098  449.699  447.199  445.529  444.437  444.630  442.168  441.131  440.369  439.914  439.319  437.988  437.784  438.924  443.480  438.097  438.561  439.632  440.728  450.273  442.557  456.044  455.949  447.216  449.084  451.329  455.841  457.935  460.586  464.116  468.465  473.872  480.260  488.488  499.136  513.213  528.499  546.302  560.074  571.385  581.100  573.584  559.671  546.656  536.431  529.941  525.951  527.550  527.662  525.185  521.213  518.960  517.245  516.137  516.284  515.868  517.663  516.564  516.530  516.694  517.167  516.387  515.993  515.065  514.991  513.286  511.696  510.600  509.122  508.739  505.468  503.319  500.960  498.176  495.859  493.540  490.790  489.316  486.148  483.166  482.582  480.909  475.195  472.231  470.918  468.149  465.368  463.115  461.567  458.511  457.596  454.476  453.102  451.017  449.981  448.144  446.929  446.247  445.725  444.849  444.130  443.491  443.795  449.643  444.051  444.744  446.792  446.363  447.160  448.095  449.662  452.146  452.364  453.770  456.202  458.256  460.154  461.316  463.467  465.304  467.637  469.312  471.106  473.060  476.143  476.905  478.294  479.702  481.002  481.794  482.739  483.971  484.120  484.478  482.856  482.305  480.832  479.695  477.376  474.903  472.033  469.143  464.953  461.130  456.359  452.235  445.655  439.093  432.607  425.381  418.053  409.823  401.395  392.233  384.401  373.926  367.495  355.979  343.437  332.760  321.596  310.626  299.922  287.993  276.987 
DATE 2017:042:01:55:34 obsn  53 az 163 el 50 freq_MHz  1420.4010 Tsys 171.000 Tant 453.402 vlsr   40.37 glat -19.187 glon 209.124 source Orion 
Fstart 1419.398 fstop 1421.404 spacing 0.009375 bw    2.400 fbw    2.000 MHz nfreq 256 nsam 5242880 npoint 214 integ   588 sigma    0.073 bsw 0
Spectrum    538 integration periods
 259.025  270.939  280.901  292.538  303.206  313.819  324.767  335.966  345.887  355.200  365.361  374.842  383.667  392.417  400.343  409.146  415.582  422.550  428.920  434.924  440.755  445.306  450.520  454.729  458.280  460.699  463.407  465.930  469.469  469.653  470.402  471.441  471.881  471.777  471.339  470.813  470.607  470.171  468.559  467.284  465.670  465.705  462.653  460.995  459.198  456.929  455.222  453.501  451.962  451.064  449.673  447.132  445.444  444.400  444.566  442.116  441.055  440.312  439.893  439.224  437.929  437.694  438.879  443.403  438.033  438.547  439.590  440.692  450.164  442.478  455.867  455.929  447.118  448.991  451.274  455.822  457.905  460.504  464.113  468.439  473.876  480.255  488.468  499.092  513.205  528.423  546.291  560.080  571.438  581.037  573.564  559.662  546.628  536.398  529.871  525.886  527.503  527.665  525.177  521.196  518.928  517.215  516.086  516.224  515.799  517.650  516.462  516.522  516.681  517.139  516.402  515.925  514.991  514.936  513.217  511.684  510.584  509.080  508.744  505.488  503.270  500.899  498.133  495.863  493.499  490.736  489.250  486.094  483.139  482.513  480.868  475.215  472.190  470.908  468.110  465.359  463.072  461.543  458.501  457.566  454.409  453.068  450.996  449.950  448.087  446.844  446.226  445.670  444.761  444.087  443.453  443.795  449.635  444.070  444.742  446.734  446.336  447.080  447.987  449.651  452.105  452.362  453.735  456.175  458.226  460.113  461.311  463.474  465.270  467.665  469.260  471.088  473.054  476.116  476.886  478.253  479.703  480.972  481.783  482.744  483.890  484.127  484.425  482.868  482.282  480.848  479.656  477.296  474.833  471.954  469.165  464.936  461.087  456.356  452.220  445.630  439.073  432.593  425.354  418.026  409.832  401.355  392.206  384.402  373.921  367.420  355.888  343.405  332.734  321.580  310.578  299.915  287.966  276.954 
DATE 2017:042:01:55:48 obsn  54 az 163 el 50 freq_MHz  1420.4010 Tsys 171.000 Tant 453.735 vlsr   40.37 glat -19.187 glon 209.124 source Orion 
Fstart 1419.398 fstop 1421.404 spacing 0.009375 bw    2.400 fbw    2.000 MHz nfreq 256 nsam 5242880 npoint 214 integ   599 sigma    0.072 bsw 0
Spectrum    548 integration periods
 258.983  270.873  280.869  292.507  303.179  313.759  324.732  335.923  345.824  355.193  365.303  374.821  383.625  392.379  400.290  409.113  415.529  422.512  428.841  434.881  440.711  445.254  450.466  454.691  458.271  460.676  463.347  465.901  469.463  469.602  470.357  471.403  471.842  471.751  471.297  470.747  470.538  470.139  468.538  467.233  465.612  465.689  462.630  460.958  459.154  456.848  455.201  453.468  451.895  451.023  449.642  447.065  445.392  444.363  444.516  442.060  440.997  440.285  439.838  439.163  437.921  437.665  438.854  443.301  437.937  438.455  439.541  440.591  449.989  442.399  455.901  455.901  447.095  448.941  451.219  455.748  457.841  460.493  464.048  468.465  473.853  480.215  488.424  499.060  513.205  528.330  546.265  560.044  571.447  581.035  573.502  559.634  546.587  536.348  529.824  525.872  527.477  527.627  525.126  521.143  518.878  517.173  516.049  516.176  515.786  517.579  516.357  516.456  516.597  517.059  516.322  515.829  514.954  514.872  513.147  511.597  510.496  509.005  508.700  505.461  503.290  500.877  498.077  495.829  493.464  490.706  489.193  486.048  483.116  482.434  480.834  475.177  472.166  470.836  468.083  465.341  463.036  461.475  458.490  457.537  454.337  453.019  451.045  449.958  448.057  446.825  446.162  445.642  444.731  444.023  443.429  443.759  449.617  444.016  444.693  446.643  446.272  447.061  447.922  449.616  452.125  452.290  453.667  456.138  458.225  460.045  461.261  463.472  465.235  467.658  469.258  471.080  473.067  476.068  476.827  478.204  479.678  480.961  481.752  482.737  483.790  484.098  484.369  482.836  482.222  480.832  479.593  477.248  474.775  471.963  469.135  464.896  461.051  456.322  452.233  445.599  439.093  432.548  425.301  417.940  409.786  401.278  392.165  384.370  373.880  367.304  355.771  343.381  332.684  321.537  310.525  299.883  287.948  276.913 
DATE 2017:042:01:56:01 obsn  55 az 163 el 50 freq_MHz  1420.4010 Tsys 171.000 Tant 454.305 vlsr   40.37 glat -19.187 glon 209.124 source Orion 
Fstart 1419.398 fstop 1421.404 spacing 0.009375 bw    2.400 fbw    2.000 MHz nfreq 256 nsam 5242880 npoint 214 integ   609 sigma    0.072 bsw 0
Spectrum    558 integration periods
 258.969  270.803  280.814  292.454  303.138  313.743  324.713  335.903  345.807  355.134  365.280  374.818  383.563  392.324  400.213  409.110  415.474  422.442  428.782  434.863  440.639  445.210  450.414  454.605  458.186  460.601  463.323  465.843  469.410  469.554  470.314  471.372  471.792  471.693  471.235  470.707  470.468  470.105  468.484  467.154  465.556  465.654  462.553  460.887  459.109  456.826  455.163  453.427  451.889  451.036  449.606  447.006  445.342  444.309  444.484  442.010  440.960  440.199  439.809  439.122  437.864  437.633  438.867  443.225  437.968  438.448  439.471  440.555  449.901  442.442  455.706  455.869  447.106  448.875  451.178  455.741  457.827  460.479  464.010  468.453  473.878  480.184  488.367  498.942  513.179  528.307  546.288  560.013  571.405  581.069  573.492  559.630  546.589  536.330  529.750  525.858  527.430  527.601  525.051  521.093  518.863  517.133  516.045  516.181  515.735  517.553  516.313  516.407  516.522  517.015  516.265  515.818  514.947  514.822  513.172  511.565  510.521  508.956  508.703  505.414  503.211  500.882  498.057  495.770  493.409  490.646  489.206  486.013  483.103  482.403  480.815  475.175  472.121  470.824  468.016  465.309  463.017  461.417  458.494  457.543  454.315  453.000  451.033  449.923  447.993  446.758  446.158  445.607  444.694  443.973  443.383  443.708  449.597  444.007  444.641  446.637  446.243  447.056  447.918  449.632  452.094  452.240  453.665  456.071  458.194  460.029  461.181  463.429  465.163  467.640  469.206  471.051  473.076  476.069  476.832  478.196  479.633  480.939  481.740  482.722  483.767  484.077  484.382  482.800  482.173  480.817  479.548  477.287  474.753  471.941  469.133  464.855  461.029  456.312  452.244  445.563  439.031  432.522  425.255  417.929  409.780  401.269  392.149  384.376  373.866  367.233  355.734  343.389  332.677  321.543  310.502  299.894  287.941  276.905 
DATE 2017:042:01:56:14 obsn  56 az 163 el 50 freq_MHz  1420.4010 Tsys 171.000 Tant 454.238 vlsr   40.37 glat -19.187 glon 209.124 source Orion 
Fstart 1419.398 fstop 1421.404 spacing 0.009375 bw    2.400 fbw    2.000 MHz nfreq 256 nsam 5242880 npoint 214 integ   620 sigma    0.071 bsw 0
Spectrum    568 integration periods
 258.946  270.766  280.745  292.401  303.128  313.703  324.676  335.856  345.755  355.140  365.251  374.770  383.532  392.326  400.203  409.063  415.418  422.401  428.738  434.825  440.641  445.148  450.358  454.564  458.167  460.642  463.296  465.778  469.405  469.526  470.291  471.278  471.709  471.618  471.125  470.631  470.399  470.078  468.424  467.110  465.494  465.634  462.513  460.862  459.006  456.796  455.127  453.373  451.825  451.013  449.550  446.941  445.278  444.231  444.429  441.948  440.904  440.107  439.756  439.071  437.833  437.596  438.872  443.163  437.927  438.430  439.452  440.470  449.768  442.453  455.685  455.896  447.094  448.867  451.171  455.720  457.783  460.437  463.979  468.404  473.849  480.166  488.339  498.930  513.139  528.233  546.224  559.999  571.405  581.143  573.500  559.633  546.510  536.289  529.690  525.836  527.398  527.541  524.996  521.108  518.791  517.062  515.986  516.106  515.720  517.508  516.294  516.336  516.538  516.969  516.227  515.762  514.920  514.749  513.168  511.528  510.488  508.925  508.654  505.395  503.178  500.825  498.037  495.719  493.403  490.613  489.174  485.991  483.070  482.365  480.769  475.140  472.129  470.761  467.962  465.242  462.959  461.396  458.516  457.527  454.296  452.988  451.006  449.891  447.958  446.725  446.103  445.596  444.652  443.985  443.331  443.668  449.536  444.023  444.606  446.675  446.215  447.025  447.853  449.636  452.047  452.236  453.680  456.039  458.167  460.023  461.191  463.422  465.147  467.614  469.144  471.024  473.039  476.013  476.803  478.197  479.574  480.908  481.699  482.697  483.717  484.095  484.389  482.761  482.165  480.765  479.595  477.298  474.744  471.927  469.123  464.818  460.977  456.322  452.268  445.527  439.034  432.530  425.192  417.931  409.733  401.242  392.125  384.370  373.835  367.163  355.704  343.371  332.660  321.522  310.483  299.872  287.951  276.890 
DATE 2017:042:01:57:28 obsn  57 az  90 el  0 freq_MHz  1420.4010 Tsys 171.000 Tant 1381.517 vlsr   -6.88 glat 50.719 glon 251.668 source at_stow
Fstart 1419.398 fstop 1421.404 spacing 0.009375 bw    2.400 fbw    2.000 MHz nfreq 256 nsam 5242880 npoint 214 integ    10 sigma    0.563 bsw 0
Spectrum      9 integration periods
 519.407  535.036  556.389  587.509  600.630  627.385  649.460  677.241  689.220  707.942  728.081  758.650  760.963  810.701  807.294  822.547  824.699  842.275  870.654  874.562  880.717  887.817  918.461  929.308  940.816  939.410  927.069  947.655  951.891  947.868  943.326  947.493  940.168  936.676  934.331  927.471  928.620  927.717  934.450  939.890  913.446  914.496  923.724  929.016  944.859  931.957  920.341  916.105  900.021  901.824  895.176  890.480  888.430  891.342  889.601  882.502  875.882  896.049  876.802  874.125  868.133  880.215  888.771  871.429  859.659  882.559  874.372  881.185  930.625  874.406  884.807 1108.131  883.640  892.165  895.627  935.324  907.987  903.711  912.372  900.395  912.787  933.294  940.167  946.953  960.038  971.436 1004.135  998.331 1002.307 1022.297 1025.413 1007.792 1004.644 1010.064 1002.245 1003.877 1014.135 1016.423 1006.331 1009.543 1030.716 1023.677 1022.804 1012.870 1026.102 1037.246 1019.479 1076.790 1026.229 1025.175 1002.966 1008.667 1032.169 1004.388 1012.639 1003.704 1019.997  999.602  998.483  985.358  995.206  992.799  982.816  971.053  976.138  978.988  960.810  957.991  966.263  955.310  948.692  955.710  932.982  935.323  919.349  921.349  930.383  913.742  957.291  905.011  906.128  898.483  904.053  899.797  884.548  876.167  888.240  890.438  886.216  877.218  876.815  873.541  887.694  871.441  872.511  885.609  890.890  872.478  874.197  889.474  889.343  885.572  899.878  904.957  905.878  902.637  898.048  925.537  922.574  953.684  931.978  937.131  939.015  933.343  939.040  939.167  935.097  938.933  956.796  949.930  956.264  945.594  955.323  947.481  951.125  940.133  933.701  947.415  927.638  917.468  920.009  912.049  896.234  892.194  885.963  874.458  857.629  839.822  833.015  824.969  830.689  786.563  762.673  768.434  726.230  713.925  698.223  674.982  648.871  632.519  616.979  590.796  561.744  544.006 
DATE 2017:042:01:57:41 obsn  58 az  90 el  0 freq_MHz  1420.4010 Tsys 171.000 Tant 110.840 vlsr   -6.92 glat 50.757 glon 251.730 source at_stow
Fstart 1419.398 fstop 1421.404 spacing 0.009375 bw    2.400 fbw    2.000 MHz nfreq 256 nsam 5242880 npoint 214 integ    21 sigma    0.388 bsw 0
Spectrum     19 integration periods
 610.858  625.890  651.941  690.684  700.373  729.086  767.515  801.225  812.313  830.991  849.971  894.318  892.543  986.911  952.085  974.258  969.722  986.632 1037.368 1053.034 1041.933 1047.710 1107.310 1123.632 1156.066 1117.377 1094.098 1131.790 1135.803 1122.738 1116.262 1121.655 1096.361 1098.661 1099.160 1086.404 1087.325 1084.747 1096.970 1116.671 1073.959 1065.594 1079.477 1098.754 1123.712 1103.234 1087.210 1089.612 1046.502 1063.956 1045.558 1040.593 1039.610 1051.444 1049.270 1044.892 1023.230 1060.718 1039.863 1027.927 1024.014 1063.096 1083.380 1036.156 1011.299 1061.542 1047.613 1045.562 1105.397 1029.542 1054.127 1312.207 1032.804 1043.763 1055.892 1109.419 1074.044 1053.178 1072.037 1050.617 1060.907 1099.213 1087.054 1093.431 1106.546 1126.617 1158.395 1144.475 1144.095 1182.514 1182.143 1156.383 1156.036 1179.925 1168.733 1167.272 1183.709 1185.440 1174.482 1189.003 1206.205 1198.689 1202.959 1190.504 1217.308 1226.102 1186.548 1294.932 1198.237 1204.440 1167.382 1169.978 1218.955 1172.162 1173.566 1170.257 1203.055 1167.142 1164.544 1143.935 1167.412 1164.274 1148.410 1124.650 1133.726 1142.147 1117.178 1117.242 1143.664 1111.099 1105.192 1118.379 1099.981 1089.162 1067.733 1082.012 1091.127 1066.348 1154.438 1053.365 1061.524 1043.879 1043.650 1057.073 1039.111 1021.406 1036.255 1049.302 1035.351 1020.339 1020.032 1015.462 1045.055 1012.417 1012.860 1032.442 1044.738 1005.388 1017.390 1040.114 1028.735 1025.746 1051.249 1063.489 1057.556 1052.008 1049.891 1085.416 1077.394 1137.503 1103.501 1091.936 1097.046 1086.302 1096.571 1096.856 1084.904 1088.438 1121.777 1110.440 1122.487 1095.293 1112.333 1110.627 1117.230 1091.334 1083.038 1105.005 1083.950 1065.854 1076.620 1061.526 1043.715 1034.825 1041.416 1027.700  989.825  970.610  969.946  967.552  986.200  927.677  889.742  910.966  839.380  824.806  816.464  789.556  753.348  738.229  719.800  689.978  653.424  632.198 
DATE 2017:042:01:57:54 obsn  59 az  90 el  0 freq_MHz  1420.4010 Tsys 171.000 Tant 34.186 vlsr   -6.96 glat 50.795 glon 251.791 source at_stow
Fstart 1419.398 fstop 1421.404 spacing 0.009375 bw    2.400 fbw    2.000 MHz nfreq 256 nsam 5242880 npoint 214 integ    32 sigma    0.314 bsw 0
Spectrum     29 integration periods
 407.549  417.712  435.142  460.773  467.367  486.483  511.939  534.311  541.894  554.404  567.056  596.311  595.441  657.430  634.864  649.499  646.820  658.002  691.367  701.803  694.648  698.566  737.760  748.555  770.064  744.617  729.481  754.239  756.918  748.323  744.045  747.634  731.007  732.438  732.781  724.406  724.935  723.181  731.199  744.201  716.086  710.568  719.665  732.204  748.628  735.122  724.533  726.158  697.820  709.244  697.137  693.803  693.165  700.746  699.392  696.423  682.188  706.704  693.035  685.103  682.510  708.127  721.469  690.480  674.083  707.071  697.897  696.544  735.782  686.047  702.399  871.341  688.324  695.510  703.480  738.612  715.486  701.903  714.267  700.304  707.153  732.348  724.452  728.628  737.367  750.587  771.637  762.745  762.402  787.466  787.315  770.596  770.342  786.055  778.712  777.748  788.591  789.650  782.599  792.154  803.461  798.509  801.290  793.066  810.708  816.461  790.488  861.494  798.176  802.171  777.862  779.542  811.668  780.861  781.782  779.632  801.097  777.537  775.769  762.209  777.578  775.503  765.101  749.486  755.342  760.807  744.438  744.423  761.689  740.973  736.987  744.815  732.771  725.621  711.451  720.790  726.664  710.402  768.002  701.708  707.050  695.441  695.219  703.956  692.098  680.590  690.208  698.820  689.541  679.721  679.484  676.534  695.981  674.514  675.065  688.839  695.841  669.975  677.919  692.832  685.436  683.448  700.225  708.418  704.494  700.940  699.643  722.892  717.669  757.091  734.833  727.342  730.720  723.747  730.468  730.708  722.827  725.222  746.996  739.583  747.447  729.645  740.761  739.584  743.933  726.962  721.460  735.776  721.885  709.991  717.034  707.021  695.276  689.333  693.522  684.383  659.433  646.654  646.072  644.305  656.394  617.864  592.831  606.568  559.395  549.633  543.977  526.067  502.071  491.938  479.536  459.733  435.516  421.333 
DATE 2017:042:01:58:08 obsn  60 az  90 el  0 freq_MHz  1420.4010 Tsys 171.000 Tant 34.118 vlsr   -7.00 glat 50.832 glon 251.853 source at_stow
Fstart 1419.398 fstop 1421.404 spacing 0.009375 bw    2.400 fbw    2.000 MHz nfreq 256 nsam 5242880 npoint 214 integ    43 sigma    0.271 bsw 0
Spectrum     39 integration periods
 308.512  316.320  329.478  348.766  353.882  368.300  387.471  404.289  410.122  419.698  429.192  451.175  450.663  496.956  480.298  491.347  489.506  497.853  522.827  530.706  525.513  528.500  557.698  565.829  581.998  563.013  551.749  570.285  572.305  565.896  562.707  565.379  553.020  554.070  554.324  548.102  548.437  547.149  553.050  562.737  541.801  537.673  544.376  553.683  565.871  555.778  547.940  549.065  527.941  536.431  527.394  524.877  524.328  529.952  528.881  526.688  516.060  534.272  524.055  518.073  516.164  535.213  545.215  522.059  509.767  534.366  527.588  526.583  555.736  518.761  530.958  656.565  520.550  525.898  531.890  558.015  540.885  530.775  540.026  529.707  534.826  553.598  547.785  550.930  557.478  567.425  583.165  576.709  576.424  595.059  595.000  582.685  582.417  594.179  588.717  588.047  596.108  596.924  591.689  598.800  607.258  603.538  605.622  599.452  612.647  616.920  597.519  650.364  603.270  606.206  588.110  589.437  613.162  590.240  590.997  589.352  605.266  587.747  586.403  576.300  587.700  586.131  578.354  566.775  571.062  575.075  562.840  562.814  575.579  560.672  557.627  562.921  553.850  548.497  537.899  544.786  549.147  537.000  579.761  530.439  534.296  525.644  525.475  531.958  523.090  514.526  521.654  528.045  521.113  513.785  513.622  511.450  525.890  509.932  510.517  521.433  525.891  506.603  512.450  523.666  518.185  516.714  529.252  535.397  532.506  529.905  528.939  546.281  542.446  571.773  555.228  549.744  552.296  547.149  552.081  552.257  546.420  548.245  564.431  558.879  564.751  551.489  559.773  558.879  562.087  549.436  545.337  555.854  545.526  536.624  541.817  534.305  525.477  520.971  524.008  517.116  498.503  488.876  488.324  486.843  495.760  466.899  448.144  458.262  422.996  415.622  411.237  397.684  379.694  371.945  362.467  347.575  329.370  318.621 
DATE 2017:042:01:58:21 obsn  61 az  90 el  0 freq_MHz  1420.4010 Tsys 171.000 Tant 34.123 vlsr   -7.04 glat 50.870 glon 251.916 source at_stow
Fstart 1419.398 fstop 1421.404 spacing 0.009375 bw    2.400 fbw    2.000 MHz nfreq 256 nsam 5242880 npoint 214 integ    54 sigma    0.241 bsw 0
Spectrum     49 integration periods
 249.904  256.307  266.959  282.491  286.723  298.369  313.844  327.373  332.170  339.932  347.601  365.255  364.997  402.017  388.869  397.761  396.398  403.152  423.151  429.481  425.412  427.807  451.175  457.686  470.701  455.540  446.590  461.389  463.028  457.963  455.413  457.531  447.682  448.492  448.717  443.719  443.994  442.935  447.647  455.318  438.634  435.277  440.641  448.047  457.700  449.667  443.392  444.241  427.446  434.152  426.961  424.952  424.487  428.890  428.005  426.217  417.756  432.211  424.035  419.287  417.744  432.880  440.885  422.377  412.543  432.194  426.837  426.000  449.166  419.759  429.397  529.475  421.236  425.488  430.260  451.105  437.543  429.479  436.888  428.702  432.895  447.810  443.278  445.796  451.016  459.042  471.654  466.660  466.341  481.214  481.216  471.487  471.254  480.613  476.292  475.730  482.218  482.834  478.744  484.393  491.138  488.179  489.785  484.887  495.428  498.791  483.312  525.415  487.917  490.263  475.845  476.894  495.747  477.488  478.044  476.745  489.401  475.426  474.317  466.262  475.317  474.076  467.849  458.628  461.987  465.169  455.398  455.344  465.432  453.973  451.526  455.317  447.979  443.684  435.239  440.683  444.055  434.400  468.377  429.119  432.113  425.206  425.062  430.194  423.065  416.229  421.896  426.963  421.368  415.570  415.477  413.761  425.231  412.514  413.125  422.285  425.302  409.863  414.583  423.527  419.205  418.065  428.068  433.008  430.698  428.648  427.996  441.801  438.742  462.121  448.970  444.638  446.666  442.624  446.546  446.720  442.066  443.488  456.395  451.938  456.617  446.015  452.637  451.926  454.478  444.389  441.068  449.401  441.127  434.077  438.115  432.109  424.973  421.397  423.692  418.150  403.221  395.477  394.952  393.683  400.650  377.571  362.548  370.524  342.274  336.271  332.650  321.737  307.266  300.928  293.223  281.187  266.525  257.807 
DATE 2017:042:01:58:34 obsn  62 az  90 el  0 freq_MHz  1420.4010 Tsys 171.000 Tant 34.143 vlsr   -7.08 glat 50.910 glon 251.982 source at_stow
Fstart 1419.398 fstop 1421.404 spacing 0.009375 bw    2.400 fbw    2.000 MHz nfreq 256 nsam 5242880 npoint 214 integ    64 sigma    0.220 bsw 0
Spectrum     59 integration periods
 211.151  216.616  225.637  238.679  242.315  252.132  265.148  276.545  280.652  287.251  293.736  308.506  308.405  339.244  328.438  335.903  334.846  340.544  357.231  362.609  359.257  361.286  380.769  386.244  397.131  384.501  377.058  389.395  390.776  386.645  384.473  386.232  378.072  378.684  378.891  374.765  374.957  374.046  377.944  384.327  370.439  367.643  372.047  378.217  386.234  379.533  374.296  374.988  360.999  366.559  360.582  358.862  358.471  362.095  361.351  359.816  352.784  364.753  357.942  353.967  352.669  365.245  371.911  356.481  348.296  364.653  360.230  359.496  378.707  354.312  362.282  445.454  355.558  359.122  363.126  380.450  369.251  362.558  368.714  361.963  365.498  377.906  374.167  376.311  380.694  387.401  397.983  393.939  393.564  405.958  405.991  397.981  397.764  405.543  402.003  401.474  406.923  407.436  404.048  408.751  414.384  411.901  413.237  409.161  417.952  420.717  407.845  442.795  411.649  413.570  401.607  402.443  418.087  402.964  403.391  402.318  412.792  401.153  400.251  393.522  401.052  400.013  394.801  387.152  389.896  392.497  384.401  384.333  392.655  383.455  381.355  384.147  378.040  374.399  367.393  371.854  374.646  366.568  394.715  362.159  364.563  358.783  358.692  362.915  356.950  351.263  355.962  360.127  355.475  350.675  350.564  349.162  358.677  348.126  348.783  356.778  358.818  345.980  349.893  357.383  353.791  352.850  361.196  365.323  363.405  361.753  361.219  372.694  370.195  389.642  378.720  375.174  376.900  373.545  376.758  376.928  373.090  374.243  384.949  381.307  385.194  376.358  381.856  381.241  383.370  374.945  372.154  379.057  372.154  366.280  369.612  364.531  358.575  355.536  357.392  352.731  340.270  333.742  333.273  332.085  337.805  318.528  305.964  312.509  288.921  283.795  280.693  271.502  259.366  253.977  247.444  237.305  224.993  217.602 
DATE 2017:042:01:58:47 obsn  63 az  90 el  0 freq_MHz  1420.4010 Tsys 171.000 Tant 34.117 vlsr   -7.12 glat 50.948 glon 252.045 source at_stow
Fstart 1419.398 fstop 1421.404 spacing 0.009375 bw    2.400 fbw    2.000 MHz nfreq 256 nsam 5242880 npoint 214 integ    75 sigma    0.203 bsw 0
Spectrum     69 integration periods
 183.644  188.441  196.284  207.540  210.767  219.312  230.540  240.423  244.050  249.790  255.461  268.187  268.216  294.653  285.492  291.962  291.139  296.076  310.432  315.086  312.259  314.055  330.735  335.474  344.901  334.018  327.684  338.286  339.489  335.987  334.100  335.602  328.628  329.134  329.316  325.761  325.925  325.123  328.436  333.902  322.018  319.622  323.339  328.621  335.494  329.724  325.221  325.791  313.805  318.574  313.417  311.920  311.548  314.653  314.010  312.671  306.629  316.853  311.016  307.575  306.467  317.208  322.936  309.716  302.650  316.658  312.924  312.267  328.670  307.875  314.612  385.800  308.944  312.022  315.442  330.271  320.704  314.987  320.310  314.549  317.605  328.253  325.111  326.971  330.727  336.505  345.641  342.259  341.902  352.502  352.574  345.788  345.578  352.215  349.224  348.776  353.442  353.897  351.017  355.017  359.862  357.744  358.855  355.410  362.944  365.288  354.254  384.144  357.522  359.141  348.890  349.613  362.962  350.012  350.358  349.437  358.404  348.445  347.620  341.879  348.295  347.400  342.923  336.381  338.677  340.902  333.938  333.883  340.974  333.352  331.534  333.625  328.366  325.205  319.172  322.966  325.331  318.366  342.422  314.560  316.608  311.637  311.522  315.141  310.028  305.098  309.109  312.665  308.699  304.572  304.458  303.296  311.452  302.442  303.051  310.244  311.604  300.604  303.953  310.389  307.331  306.530  313.698  317.263  315.645  314.221  313.806  323.640  321.493  338.152  328.830  325.847  327.324  324.476  327.223  327.372  324.081  325.071  334.226  331.112  334.422  326.851  331.578  331.022  332.855  325.642  323.204  329.096  323.175  318.138  320.925  316.540  311.397  308.788  310.296  306.256  295.521  289.891  289.435  288.331  293.148  276.589  265.767  271.309  251.017  246.550  243.795  235.827  225.353  220.649  214.957  206.163  195.510  189.070 
DATE 2017:042:01:59:00 obsn  64 az  90 el  0 freq_MHz  1420.4010 Tsys 171.000 Tant 34.121 vlsr   -7.16 glat 50.985 glon 252.107 source at_stow
Fstart 1419.398 fstop 1421.404 spacing 0.009375 bw    2.400 fbw    2.000 MHz nfreq 256 nsam 5242880 npoint 214 integ    86 sigma    0.190 bsw 0
Spectrum     79 integration periods
 163.092  167.391  174.344  184.286  187.208  194.813  204.709  213.467  216.708  221.815  226.874  238.061  238.172  261.334  253.435  259.169  258.506  262.865  275.486  279.601  277.170  278.777  293.390  297.595  305.886  296.318  290.815  300.109  301.190  298.170  296.545  297.817  291.678  292.122  292.290  289.169  289.311  288.609  291.485  296.241  285.847  283.727  286.966  291.584  297.565  292.503  288.570  289.064  278.571  282.725  278.203  276.871  276.529  279.232  278.639  277.463  272.173  281.069  275.955  272.921  271.951  281.325  286.370  274.779  268.569  280.814  277.566  277.004  291.324  273.179  279.085  341.247  274.126  276.805  279.827  292.801  284.462  279.492  284.157  279.130  281.833  291.173  288.476  290.115  293.424  298.495  306.538  303.666  303.331  312.599  312.666  306.789  306.595  312.435  309.773  309.447  313.530  313.921  311.424  314.917  319.131  317.249  318.243  315.252  321.866  323.882  314.220  340.330  317.070  318.496  309.509  310.146  321.802  310.480  310.759  309.930  317.792  309.079  308.335  303.313  308.903  308.087  304.183  298.469  300.458  302.361  296.259  296.197  302.361  295.948  294.294  295.885  291.257  288.475  283.180  286.455  288.503  282.388  303.359  279.001  280.792  276.424  276.294  279.448  274.950  270.631  274.135  277.230  273.731  270.139  270.020  269.048  276.160  268.318  268.899  275.492  276.372  266.724  269.617  275.266  272.624  271.949  278.208  281.347  279.937  278.713  278.389  286.996  285.137  299.721  291.571  289.008  290.308  287.827  290.234  290.376  287.491  288.337  296.350  293.645  296.542  289.905  294.010  293.545  295.116  288.802  286.665  291.782  286.574  282.182  284.565  280.713  276.183  273.857  275.124  271.556  262.098  257.134  256.689  255.678  259.807  245.283  235.763  240.534  222.723  218.741  216.237  209.200  199.955  195.747  190.688  182.896  173.479  167.751 
DATE 2017:042:01:59:13 obsn  65 az  90 el  0 freq_MHz  1420.4010 Tsys 171.000 Tant 34.103 vlsr   -7.20 glat 51.023 glon 252.170 source at_stow
Fstart 1419.398 fstop 1421.404 spacing 0.009375 bw    2.400 fbw    2.000 MHz nfreq 256 nsam 5242880 npoint 214 integ    97 sigma    0.179 bsw 0
Spectrum     89 integration periods
 147.169  151.072  157.344  166.274  168.965  175.809  184.670  192.541  195.508  200.156  204.706  214.712  214.859  235.521  228.564  233.711  233.189  237.119  248.383  252.091  249.939  251.420  264.429  268.202  275.639  267.121  262.242  270.509  271.497  268.818  267.391  268.515  263.029  263.418  263.578  260.776  260.899  260.273  262.837  267.040  257.821  255.915  258.774  262.863  268.174  263.671  260.152  260.588  251.261  254.921  250.904  249.687  249.348  251.767  251.230  250.153  245.445  253.332  248.786  246.074  245.195  253.511  258.009  247.662  242.144  253.050  250.143  249.657  262.354  246.259  251.520  306.689  247.133  249.524  252.191  263.740  256.356  251.971  256.139  251.678  254.100  262.421  260.053  261.539  264.484  269.046  276.223  273.728  273.419  281.644  281.746  276.546  276.375  281.579  279.211  278.945  282.555  282.937  280.700  283.835  287.582  285.903  286.788  284.105  289.988  291.764  283.192  306.383  285.696  286.979  279.001  279.530  289.859  279.839  280.046  279.327  286.275  278.535  277.875  273.399  278.349  277.633  274.130  269.082  270.809  272.502  267.079  266.971  272.429  266.932  265.436  266.626  262.485  260.031  255.269  258.160  259.931  254.483  273.070  251.448  253.013  249.104  248.996  251.766  247.760  243.907  247.006  249.772  246.638  243.435  243.333  242.484  248.814  241.853  242.421  248.582  249.031  240.448  243.004  248.043  245.693  245.129  250.676  253.487  252.265  251.199  250.936  258.590  256.933  269.917  262.694  260.460  261.620  259.415  261.564  261.676  259.116  259.880  266.978  264.598  267.157  261.248  264.879  264.465  265.867  260.220  258.315  262.835  258.209  254.284  256.375  252.949  248.868  246.789  247.868  244.657  236.195  231.762  231.319  230.363  233.949  221.023  212.502  216.679  200.791  197.164  194.867  188.539  180.254  176.444  171.872  164.858  156.382  151.222 
DATE 2017:042:01:59:27 obsn  66 az  90 el  0 freq_MHz  1420.4010 Tsys 171.000 Tant 34.101 vlsr   -7.24 glat 51.060 glon 252.232 source at_stow
Fstart 1419.398 fstop 1421.404 spacing 0.009375 bw    2.400 fbw    2.000 MHz nfreq 256 nsam 5242880 npoint 214 integ   108 sigma    0.170 bsw 0
Spectrum     99 integration periods
 134.460  138.050  143.774  151.895  154.390  160.639  168.694  175.832  178.608  182.835  187.000  196.088  196.278  214.927  208.710  213.412  212.985  216.580  226.750  230.138  228.240  229.586  241.309  244.736  251.501  243.813  239.446  246.884  247.820  245.385  244.129  245.112  240.200  240.520  240.675  238.143  238.237  237.705  239.966  243.749  235.426  233.726  236.303  239.943  244.708  240.656  237.483  237.852  229.456  232.745  229.122  227.998  227.688  229.841  229.340  228.372  224.096  231.199  227.113  224.649  223.814  231.318  235.398  226.043  221.077  230.875  228.278  227.840  239.242  224.779  229.520  279.122  225.587  227.741  230.154  240.549  233.935  229.998  233.757  229.770  231.976  239.460  237.372  238.739  241.406  245.535  252.036  249.829  249.554  256.935  257.064  252.446  252.270  256.937  254.828  254.581  257.846  258.200  256.201  259.020  262.381  260.871  261.664  259.249  264.577  266.137  258.403  279.270  260.670  261.835  254.664  255.104  264.396  255.381  255.544  254.894  261.138  254.147  253.576  249.539  253.970  253.318  250.148  245.605  247.143  248.657  243.778  243.656  248.541  243.779  242.402  243.275  239.517  237.289  233.008  235.584  237.142  232.214  248.904  229.462  230.858  227.332  227.185  229.671  226.053  222.585  225.374  227.859  225.016  222.145  222.048  221.291  226.972  220.715  221.308  227.073  227.214  219.485  221.777  226.303  224.213  223.728  228.726  231.268  230.191  229.230  229.014  235.928  234.438  246.117  239.659  237.667  238.719  236.738  238.657  238.765  236.464  237.183  243.581  241.420  243.693  238.381  241.650  241.264  242.525  237.433  235.686  239.746  235.599  232.009  233.883  230.755  227.081  225.162  226.116  223.170  215.523  211.491  211.073  210.140  213.338  201.656  193.934  197.623  183.276  179.951  177.817  172.061  164.545  161.039  156.852  150.468  142.764  138.029 
DATE 2017:042:01:59:40 obsn  67 az  90 el  0 freq_MHz  1420.4010 Tsys 171.000 Tant 34.150 vlsr   -7.28 glat 51.098 glon 252.295 source at_stow
Fstart 1419.398 fstop 1421.404 spacing 0.009375 bw    2.400 fbw    2.000 MHz nfreq 256 nsam 5242880 npoint 214 integ   119 sigma    0.162 bsw 0
Spectrum    109 integration periods
 124.078  127.421  132.704  140.143  142.503  148.247  155.654  162.209  164.806  168.701  172.568  180.884  181.125  198.117  192.534  196.841  196.496  199.817  209.109  212.231  210.528  211.769  222.449  225.607  231.811  224.796  220.830  227.603  228.447  226.268  225.107  226.015  221.537  221.842  221.971  219.649  219.727  219.249  221.299  224.709  217.158  215.584  217.927  221.242  225.541  221.866  218.955  219.303  211.652  214.645  211.331  210.302  210.001  211.923  211.458  210.582  206.673  213.126  209.406  207.159  206.392  213.178  216.925  208.380  203.869  212.772  210.433  210.023  220.364  207.267  211.584  256.608  207.984  209.960  212.152  221.612  215.604  212.073  215.493  211.891  213.905  220.723  218.844  220.117  222.563  226.352  232.311  230.316  230.046  236.750  236.870  232.750  232.575  236.833  234.910  234.690  237.675  238.000  236.195  238.778  241.818  240.445  241.166  238.967  243.833  245.237  238.179  257.151  240.245  241.297  234.791  235.176  243.605  235.400  235.548  234.954  240.616  234.275  233.710  230.038  234.059  233.468  230.585  226.452  227.823  229.193  224.751  224.620  229.066  224.885  223.592  224.240  220.787  218.738  214.827  217.160  218.521  214.039  229.184  211.515  212.756  209.536  209.400  211.627  208.331  205.163  207.694  209.966  207.355  204.738  204.665  203.986  209.155  203.461  204.069  209.516  209.396  202.334  204.432  208.565  206.673  206.250  210.797  213.136  212.171  211.304  211.123  217.422  216.102  226.694  220.827  219.061  220.018  218.233  219.983  220.076  217.992  218.641  224.448  222.470  224.555  219.709  222.686  222.321  223.447  218.826  217.214  220.907  217.125  213.838  215.512  212.653  209.291  207.523  208.348  205.643  198.670  194.952  194.526  193.644  196.510  185.836  178.774  182.069  168.981  165.889  163.913  158.598  151.716  148.456  144.589  138.718  131.646  127.255 
DATE 2017:042:01:59:53 obsn  68 az  90 el  0 freq_MHz  1420.4010 Tsys 171.000 Tant 34.055 vlsr   -7.33 glat 51.138 glon 252.363 source at_stow
Fstart 1419.398 fstop 1421.404 spacing 0.009375 bw    2.400 fbw    2.000 MHz nfreq 256 nsam 5242880 npoint 214 integ   130 sigma    0.155 bsw 0
Spectrum    119 integration periods
 115.445  118.576  123.488  130.379  132.604  137.935  144.798  150.877  153.316  156.948  160.552  168.234  168.498  184.113  179.063  183.053  182.763  185.856  194.418  197.342  195.790  196.926  206.753  209.677  215.399  208.962  205.324  211.553  212.347  210.350  209.277  210.114  206.004  206.283  206.411  204.278  204.316  203.894  205.770  208.872  201.965  200.508  202.644  205.689  209.611  206.236  203.550  203.856  196.831  199.567  196.525  195.592  195.301  197.026  196.592  195.770  192.185  198.092  194.671  192.606  191.875  198.086  201.553  193.700  189.553  197.713  195.571  195.207  204.650  192.657  196.651  237.875  193.341  195.158  197.191  205.855  200.360  197.150  200.304  197.022  198.889  205.133  203.439  204.633  206.883  210.383  215.883  214.086  213.827  219.973  220.082  216.359  216.170  220.094  218.351  218.156  220.894  221.190  219.536  221.913  224.712  223.438  224.111  222.105  226.550  227.843  221.363  238.721  223.250  224.203  218.255  218.582  226.277  218.785  218.898  218.356  223.529  217.706  217.195  213.820  217.498  216.939  214.297  210.511  211.749  213.003  208.930  208.791  212.823  209.163  207.951  208.367  205.181  203.292  199.690  201.823  203.036  198.917  212.784  196.582  197.692  194.730  194.596  196.637  193.601  190.699  192.987  195.071  192.663  190.267  190.201  189.573  194.306  189.106  189.730  194.906  194.563  188.111  190.014  193.812  192.079  191.712  195.895  198.053  197.186  196.389  196.235  202.033  200.818  210.540  205.194  203.571  204.454  202.833  204.429  204.523  202.616  203.213  208.536  206.719  208.603  204.182  206.906  206.562  207.582  203.359  201.841  205.216  201.742  198.711  200.230  197.606  194.497  192.840  193.572  191.040  184.635  181.208  180.761  179.922  182.499  172.672  166.169  169.141  157.086  154.212  152.346  147.410  141.050  137.986  134.375  128.939  122.385  118.303 
DATE 2017:042:02:00:06 obsn  69 az  90 el  0 freq_MHz  1420.4010 Tsys 171.000 Tant 34.025 vlsr   -7.37 glat 51.175 glon 252.425 source at_stow
Fstart 1419.398 fstop 1421.404 spacing 0.009375 bw    2.400 fbw    2.000 MHz nfreq 256 nsam 5242880 npoint 214 integ   141 sigma    0.149 bsw 0
Spectrum    129 integration periods
 108.148  111.100  115.697  122.139  124.235  129.220  135.624  141.289  143.610  147.020  150.390  157.534  157.826  172.291  167.671  171.402  171.164  174.057  182.010  184.732  183.326  184.394  193.489  196.211  201.543  195.573  192.227  198.006  198.727  196.894  195.913  196.690  192.903  193.147  193.250  191.294  191.322  190.919  192.644  195.497  189.106  187.760  189.727  192.535  196.160  193.022  190.522  190.799  184.313  186.833  184.026  183.131  182.865  184.424  184.030  183.255  179.946  185.380  182.198  180.315  179.610  185.359  188.568  181.291  177.447  184.996  183.016  182.680  191.389  180.306  184.027  222.054  180.960  182.666  184.544  192.550  187.498  184.551  187.468  184.443  186.174  191.968  190.427  191.533  193.627  196.875  201.994  200.374  200.106  205.794  205.916  202.505  202.327  205.960  204.349  204.170  206.696  206.995  205.472  207.654  210.245  209.055  209.676  207.849  211.963  213.150  207.170  223.165  208.900  209.752  204.280  204.567  211.645  204.746  204.852  204.320  209.101  203.711  203.218  200.110  203.498  202.983  200.539  197.048  198.170  199.309  195.534  195.392  199.106  195.869  194.744  194.949  191.996  190.227  186.909  188.840  189.941  186.131  198.915  183.959  184.974  182.220  182.085  183.947  181.151  178.481  180.557  182.490  180.251  178.033  177.980  177.400  181.776  176.979  177.602  182.545  182.035  176.070  177.818  181.338  179.765  179.423  183.284  185.284  184.493  183.776  183.656  189.019  187.904  196.875  191.965  190.497  191.302  189.801  191.283  191.369  189.616  190.180  195.082  193.410  195.146  191.059  193.582  193.246  194.184  190.270  188.860  191.951  188.745  185.931  187.314  184.866  182.000  180.435  181.075  178.716  172.785  169.583  169.119  168.320  170.640  161.555  155.514  158.219  147.029  144.331  142.566  137.955  132.024  129.140  125.757  120.675  114.563  110.733 
DATE 2017:042:02:00:19 obsn  70 az  90 el  0 freq_MHz  1420.4010 Tsys 171.000 Tant 34.033 vlsr   -7.41 glat 51.213 glon 252.488 source at_stow
Fstart 1419.398 fstop 1421.404 spacing 0.009375 bw    2.400 fbw    2.000 MHz nfreq 256 nsam 5242880 npoint 214 integ   152 sigma    0.143 bsw 0
Spectrum    139 integration periods
 101.908  104.697  109.035  115.067  117.076  121.764  127.771  133.088  135.302  138.521  141.700  148.371  148.695  162.178  157.925  161.426  161.242  163.954  171.366  173.934  172.656  173.664  182.127  184.701  189.683  184.118  181.045  186.401  187.074  185.394  184.474  185.197  181.662  181.899  181.986  180.175  180.181  179.804  181.414  184.043  178.103  176.847  178.668  181.275  184.622  181.714  179.370  179.633  173.597  175.926  173.315  172.468  172.213  173.658  173.271  172.543  169.456  174.497  171.523  169.780  169.124  174.460  177.434  170.653  167.083  174.092  172.268  171.949  180.038  169.749  173.235  208.505  170.384  171.959  173.713  181.153  176.486  173.751  176.472  173.679  175.292  180.687  179.287  180.339  182.299  185.310  190.096  188.643  188.364  193.652  193.776  190.649  190.467  193.857  192.359  192.213  194.561  194.818  193.439  195.456  197.863  196.760  197.331  195.625  199.465  200.556  195.016  209.832  196.594  197.382  192.312  192.588  199.133  192.717  192.811  192.303  196.754  191.728  191.272  188.384  191.512  191.028  188.756  185.525  186.545  187.579  184.080  183.926  187.359  184.484  183.422  183.463  180.716  179.045  175.976  177.749  178.748  175.201  187.053  173.166  174.089  171.523  171.379  173.110  170.482  168.003  169.929  171.721  169.631  167.560  167.510  166.983  171.033  166.595  167.223  171.976  171.304  165.755  167.389  170.661  169.205  168.892  172.497  174.374  173.637  172.994  172.891  177.869  176.858  185.178  180.626  179.292  180.042  178.648  180.027  180.105  178.493  179.017  183.559  182.008  183.618  179.816  182.158  181.828  182.713  179.058  177.745  180.606  177.613  174.992  176.255  173.967  171.290  169.800  170.383  168.158  162.632  159.631  159.165  158.385  160.502  152.030  146.390  148.858  138.422  135.876  134.188  129.855  124.292  121.568  118.377  113.587  107.864  104.252 
DATE 2017:042:02:00:32 obsn  71 az  90 el  0 freq_MHz  1420.4010 Tsys 171.000 Tant 34.036 vlsr   -7.45 glat 51.250 glon 252.552 source at_stow
Fstart 1419.398 fstop 1421.404 spacing 0.009375 bw    2.400 fbw    2.000 MHz nfreq 256 nsam 5242880 npoint 214 integ   163 sigma    0.138 bsw 0
Spectrum    149 integration periods
  96.499   99.156  103.256  108.948  110.871  115.308  120.971  125.988  128.100  131.144  134.162  140.435  140.789  153.413  149.486  152.800  152.664  155.231  162.174  164.601  163.421  164.385  172.307  174.719  179.411  174.206  171.336  176.359  177.002  175.435  174.567  175.236  171.939  172.160  172.236  170.543  170.530  170.189  171.678  174.124  168.586  167.411  169.104  171.518  174.642  171.916  169.726  169.956  164.319  166.487  164.046  163.254  162.977  164.325  163.971  163.275  160.374  165.080  162.293  160.663  160.040  165.018  167.804  161.458  158.128  164.661  162.955  162.664  170.203  160.599  163.835  196.772  161.225  162.686  164.339  171.284  166.938  164.402  166.949  164.361  165.888  170.913  169.634  170.632  172.475  175.299  179.797  178.480  178.207  183.139  183.270  180.387  180.202  183.365  181.979  181.844  184.042  184.294  183.005  184.903  187.147  186.115  186.640  185.058  188.643  189.678  184.479  198.299  185.950  186.686  181.943  182.189  188.293  182.303  182.385  181.915  186.051  181.360  180.918  178.230  181.126  180.685  178.560  175.522  176.481  177.434  174.156  173.998  177.195  174.645  173.613  173.539  170.951  169.375  166.505  168.133  169.063  165.737  176.759  163.812  164.647  162.250  162.093  163.712  161.252  158.924  160.727  162.395  160.427  158.498  158.451  157.967  161.742  157.600  158.226  162.826  162.018  156.827  158.356  161.415  160.074  159.784  163.167  164.918  164.242  163.663  163.576  168.229  167.276  175.052  170.828  169.593  170.295  169.004  170.290  170.374  168.877  169.341  173.600  172.142  173.636  170.098  172.271  171.960  172.800  169.376  168.129  170.764  167.975  165.519  166.673  164.534  162.017  160.603  161.120  159.017  153.845  150.998  150.544  149.781  151.740  143.778  138.484  140.756  130.975  128.555  126.930  122.835  117.608  115.003  111.986  107.452  102.061   98.637 
DATE 2017:042:02:00:45 obsn  72 az  90 el  0 freq_MHz  1420.4010 Tsys 171.000 Tant 34.009 vlsr   -7.49 glat 51.287 glon 252.615 source at_stow
Fstart 1419.398 fstop 1421.404 spacing 0.009375 bw    2.400 fbw    2.000 MHz nfreq 256 nsam 5242880 npoint 214 integ   174 sigma    0.134 bsw 0
Spectrum    159 integration periods
  91.760   94.316   98.209  103.593  105.451  109.668  115.024  119.782  121.808  124.705  127.578  133.506  133.878  145.744  142.106  145.252  145.139  147.593  154.124  156.433  155.347  156.272  163.706  165.981  170.430  165.529  162.868  167.568  168.193  166.738  165.902  166.532  163.432  163.637  163.722  162.120  162.095  161.786  163.176  165.458  160.262  159.161  160.746  162.992  165.908  163.338  161.301  161.488  156.211  158.232  155.943  155.185  154.918  156.159  155.838  155.169  152.449  156.847  154.224  152.684  152.094  156.761  159.389  153.412  150.289  156.423  154.817  154.545  161.604  152.614  155.654  186.520  153.217  154.592  156.140  162.657  158.611  156.237  158.632  156.224  157.647  162.372  161.189  162.141  163.870  166.552  170.800  169.583  169.309  173.953  174.070  171.406  171.228  174.195  172.915  172.790  174.848  175.101  173.879  175.664  177.783  176.800  177.296  175.832  179.181  180.146  175.259  188.233  176.661  177.333  172.879  173.120  178.829  173.204  173.266  172.839  176.693  172.294  171.878  169.365  172.067  171.651  169.631  166.793  167.681  168.553  165.488  165.327  168.305  166.029  165.037  164.844  162.405  160.923  158.220  159.720  160.586  157.454  167.767  155.634  156.393  154.139  153.983  155.498  153.188  150.998  152.682  154.245  152.377  150.572  150.531  150.068  153.622  149.739  150.366  154.827  153.903  149.031  150.443  153.326  152.083  151.808  155.000  156.654  156.024  155.489  155.423  159.789  158.903  166.217  162.259  161.119  161.771  160.556  161.774  161.853  160.447  160.889  164.886  163.508  164.913  161.589  163.639  163.335  164.104  160.902  159.721  162.169  159.563  157.241  158.312  156.273  153.911  152.567  153.022  151.032  146.155  143.470  143.008  142.264  144.065  136.569  131.572  133.673  124.455  122.160  120.591  116.703  111.756  109.274  106.394  102.100   96.995   93.740 
DATE 2017:042:02:00:59 obsn  73 az  90 el  0 freq_MHz  1420.4010 Tsys 171.000 Tant 34.084 vlsr   -7.53 glat 51.324 glon 252.678 source at_stow
Fstart 1419.398 fstop 1421.404 spacing 0.009375 bw    2.400 fbw    2.000 MHz nfreq 256 nsam 5242880 npoint 214 integ   185 sigma    0.130 bsw 0
Spectrum    169 integration periods
  87.589   90.045   93.754   98.866  100.673  104.689  109.789  114.304  116.259  119.039  121.771  127.401  127.787  138.988  135.597  138.584  138.525  140.850  147.029  149.231  148.217  149.115  156.115  158.287  162.513  157.881  155.390  159.816  160.414  159.059  158.263  158.859  155.924  156.133  156.203  154.690  154.657  154.387  155.680  157.828  152.932  151.882  153.372  155.468  158.212  155.790  153.855  154.036  149.064  150.958  148.800  148.074  147.814  148.963  148.654  148.030  145.456  149.589  147.102  145.643  145.093  149.479  151.960  146.320  143.377  149.146  147.645  147.384  154.025  145.556  148.418  177.476  146.154  147.451  148.913  155.048  151.240  149.023  151.283  149.036  150.394  154.847  153.739  154.669  156.309  158.837  162.864  161.760  161.470  165.845  165.981  163.513  163.318  166.111  164.918  164.801  166.747  166.997  165.833  167.518  169.524  168.595  169.068  167.687  170.831  171.733  167.127  179.348  168.446  169.083  164.889  165.123  170.476  165.167  165.229  164.829  168.442  164.301  163.905  161.535  164.072  163.685  161.768  159.096  159.921  160.733  157.838  157.684  160.473  158.432  157.482  157.174  154.879  153.469  150.911  152.315  153.113  150.142  159.833  148.425  149.122  146.987  146.835  148.256  146.064  144.011  145.578  147.056  145.289  143.590  143.540  143.116  146.466  142.815  143.453  147.771  146.749  142.144  143.485  146.205  145.042  144.790  147.795  149.370  148.773  148.288  148.232  152.354  151.536  158.416  154.695  153.640  154.258  153.110  154.266  154.348  153.017  153.437  157.204  155.907  157.223  154.095  156.021  155.725  156.445  153.415  152.308  154.595  152.141  149.953  150.935  149.006  146.764  145.479  145.889  143.996  139.378  136.823  136.365  135.637  137.299  130.214  125.485  127.425  118.716  116.507  114.995  111.292  106.601  104.218  101.467   97.378   92.519   89.412 
DATE 2017:042:02:01:12 obsn  74 az  90 el  0 freq_MHz  1420.4010 Tsys 171.000 Tant 34.022 vlsr   -7.57 glat 51.361 glon 252.741 source at_stow
Fstart 1419.398 fstop 1421.404 spacing 0.009375 bw    2.400 fbw    2.000 MHz nfreq 256 nsam 5242880 npoint 214 integ   196 sigma    0.126 bsw 0
Spectrum    179 integration periods
  83.888   86.258   89.802   94.680   96.435  100.271  105.128  109.440  111.330  113.995  116.615  121.977  122.374  132.984  129.811  132.671  132.651  134.869  140.732  142.833  141.897  142.756  149.374  151.454  155.484  151.090  148.744  152.939  153.505  152.240  151.491  152.048  149.274  149.468  149.526  148.090  148.061  147.794  149.016  151.034  146.417  145.420  146.801  148.794  151.369  149.092  147.244  147.411  142.720  144.500  142.457  141.762  141.506  142.584  142.287  141.682  139.238  143.148  140.783  139.398  138.867  143.020  145.377  140.023  137.244  142.693  141.262  141.030  147.300  139.287  142.020  169.443  139.875  141.103  142.482  148.295  144.715  142.615  144.771  142.656  143.954  148.179  147.128  148.028  149.598  151.994  155.825  154.805  154.505  158.654  158.791  156.490  156.295  158.949  157.817  157.710  159.541  159.787  158.694  160.284  162.182  161.303  161.756  160.446  163.413  164.271  159.911  171.457  161.152  161.755  157.790  158.003  163.056  158.053  158.090  157.709  161.120  157.201  156.826  154.592  156.968  156.603  154.782  152.244  153.022  153.779  151.054  150.889  153.522  151.673  150.766  150.356  148.195  146.855  144.426  145.724  146.482  143.660  152.782  142.019  142.660  140.633  140.483  141.833  139.742  137.803  139.279  140.672  139.000  137.385  137.344  136.940  140.112  136.661  137.297  141.511  140.388  136.034  137.302  139.872  138.786  138.559  141.396  142.893  142.343  141.912  141.852  145.748  144.990  151.493  147.981  146.994  147.579  146.485  147.592  147.688  146.421  146.820  150.372  149.156  150.398  147.436  149.242  148.961  149.642  146.780  145.721  147.866  145.547  143.465  144.385  142.560  140.406  139.187  139.549  137.750  133.350  130.926  130.462  129.748  131.295  124.571  120.084  121.878  113.614  111.502  110.018  106.491  102.015   99.733   97.091   93.181   88.549   85.574 
DATE 2017:042:02:01:25 obsn  75 az  90 el  0 freq_MHz  1420.4010 Tsys 171.000 Tant 34.044 vlsr   -7.61 glat 51.401 glon 252.810 source at_stow
Fstart 1419.398 fstop 1421.404 spacing 0.009375 bw    2.400 fbw    2.000 MHz nfreq 256 nsam 5242880 npoint 214 integ   206 sigma    0.123 bsw 0
Spectrum    189 integration periods
  80.579   82.865   86.280   90.932   92.644   96.327  100.960  105.097  106.922  109.478  112.006  117.119  117.534  127.608  124.641  127.390  127.393  129.512  135.096  137.105  136.241  137.067  143.356  145.345  149.195  145.013  142.794  146.791  147.326  146.137  145.424  145.947  143.320  143.511  143.570  142.192  142.158  141.905  143.055  144.968  140.595  139.647  140.939  142.821  145.257  143.101  141.345  141.497  137.044  138.716  136.764  136.121  135.853  136.878  136.585  136.012  133.681  137.389  135.135  133.812  133.305  137.238  139.488  134.389  131.758  136.910  135.568  135.360  141.274  133.691  136.292  162.254  134.263  135.422  136.742  142.259  138.877  136.894  138.949  136.947  138.195  142.209  141.209  142.077  143.578  145.871  149.527  148.591  148.288  152.221  152.357  150.195  150.015  152.537  151.470  151.359  153.106  153.340  152.311  153.825  155.633  154.791  155.213  153.973  156.788  157.587  153.453  164.385  154.632  155.203  151.441  151.646  156.424  151.696  151.711  151.340  154.559  150.854  150.499  148.374  150.613  150.257  148.537  146.130  146.860  147.564  144.972  144.816  147.300  145.642  144.758  144.257  142.220  140.928  138.620  139.834  140.548  137.867  146.490  136.295  136.873  134.949  134.807  136.088  134.088  132.256  133.644  134.955  133.364  131.835  131.806  131.408  134.425  131.154  131.786  135.913  134.701  130.564  131.765  134.218  133.192  132.985  135.687  137.119  136.594  136.190  136.141  139.844  139.128  145.295  141.973  141.060  141.609  140.584  141.625  141.717  140.529  140.900  144.264  143.111  144.283  141.482  143.187  142.922  143.565  140.850  139.838  141.861  139.651  137.663  138.518  136.783  134.726  133.554  133.877  132.158  127.957  125.651  125.178  124.484  125.919  119.518  115.251  116.919  109.052  107.014  105.571  102.196   97.917   95.717   93.176   89.424   84.997   82.136 
