DATE 2017:063:17:01:23 obsn   0 az  74 el 40 freq_MHz  1420.4000 Tsys 192.762 Tant 19.358 vlsr   22.89 glat -31.232 glon 133.843 source Trigl 
Fstart 1419.397 fstop 1421.403 spacing 0.009375 bw    2.400 fbw    2.000 MHz nfreq 256 nsam 5242880 npoint 214 integ    36 sigma    0.332 bsw 0
Spectrum     33 integration periods
 238.271  237.143  236.015  236.117  236.471  235.856  236.641  236.165  236.807  236.713  236.212  237.052  237.153  236.136  236.661  236.577  236.264  236.559  236.065  236.380  235.957  236.481  236.675  236.240  236.600  235.995  236.078  235.199  236.127  235.521  235.305  235.668  235.992  236.394  235.267  235.288  235.686  236.065  235.804  234.711  235.225  235.506  235.642  236.221  236.844  234.747  235.991  235.253  235.583  235.324  235.724  235.468  235.777  235.225  235.182  235.386  234.661  235.134  235.123  235.436  235.452  235.402  234.761  248.833  240.306  412.300  237.532  235.386  234.784  234.641  234.335  234.474  233.966  234.122  234.705  233.326  234.306  235.066  234.216  233.369  234.247  233.942  234.116  233.592  235.733  233.982  234.555  234.529  235.285  235.711  235.493  236.250  236.186  237.170  240.244  242.833  245.666  248.088  250.111  251.727  248.854  243.644  241.317  238.578  238.464  237.776  238.049  236.577  237.391  236.980  237.371  237.151  236.312  236.608  236.681  236.025  235.805  237.102  235.545  235.101  235.191  236.827  235.074  234.562  234.843  235.503  234.384  235.221  235.463  235.167  234.504  234.264  235.684  233.729  233.206  232.848  233.782  232.963  233.776  233.522  233.356  233.340  233.655  232.824  233.635  234.265  233.821  234.718  233.773  233.846  233.418  233.170  233.385  234.729  234.378  233.718  233.781  233.980  233.509  235.222  234.710  233.653  234.450  233.837  234.607  233.633  234.509  234.669  235.081  234.600  233.458  233.526  233.325  233.892  234.086  234.157  234.719  233.167  233.535  232.736  233.151  233.510  234.256  232.982  233.005  233.559  233.476  232.743  233.438  233.777  234.197  234.094  233.301  233.729  233.598  233.352  233.507  234.162  234.049  232.011  233.979  233.940  232.894  233.006  233.235  233.857  234.143  234.255  234.854  234.573  234.111  233.630  234.715  233.943 
DATE 2017:063:17:01:36 obsn   1 az  74 el 40 freq_MHz  1420.4000 Tsys 192.762 Tant 19.386 vlsr   22.89 glat -31.232 glon 133.843 source Trigl 
Fstart 1419.397 fstop 1421.403 spacing 0.009375 bw    2.400 fbw    2.000 MHz nfreq 256 nsam 5242880 npoint 214 integ    47 sigma    0.290 bsw 0
Spectrum     43 integration periods
 232.292  231.248  230.225  230.560  230.551  230.099  230.856  230.553  230.986  230.990  230.510  231.217  231.420  230.757  230.913  230.738  230.651  231.039  230.489  230.904  230.072  230.826  230.772  230.701  230.591  230.325  230.227  229.621  230.435  229.903  229.615  229.624  230.082  230.428  229.544  229.526  229.679  230.353  229.908  229.177  229.562  229.655  229.503  230.151  231.022  228.876  229.994  229.575  229.875  229.628  229.983  229.569  229.829  229.511  229.811  229.604  229.208  229.485  229.458  229.400  229.840  229.497  229.250  243.210  234.460  407.647  231.948  229.488  228.801  228.572  229.508  228.910  228.364  228.455  228.627  227.802  228.665  229.022  228.481  228.057  228.858  228.213  228.551  228.066  229.625  228.508  229.221  229.016  229.306  229.756  230.117  230.454  230.387  231.617  234.289  236.904  240.125  242.345  244.447  246.045  243.269  238.371  235.844  233.375  232.792  232.130  231.977  231.007  231.467  231.176  231.480  231.311  230.560  230.620  230.605  230.187  230.129  231.284  230.143  229.589  229.678  230.630  229.611  228.961  229.335  229.915  228.605  229.440  229.681  229.293  228.683  228.603  229.969  228.134  227.858  227.426  228.105  227.357  228.067  227.888  227.725  227.784  227.826  227.255  228.024  228.402  227.975  228.714  227.953  228.152  227.348  227.534  227.652  228.724  228.821  227.857  227.732  228.281  227.824  229.513  229.172  228.119  228.736  228.144  228.856  228.378  228.680  228.495  228.986  228.858  227.577  227.712  227.877  228.099  228.214  228.308  228.714  227.684  227.815  226.981  227.361  227.589  228.241  227.508  227.427  227.733  227.707  227.297  227.613  228.178  228.592  228.375  227.709  228.100  227.692  227.392  227.784  227.956  228.170  226.445  228.338  228.106  227.246  227.223  227.764  227.965  228.219  228.396  229.123  228.846  228.330  227.907  228.777  228.221 
DATE 2017:063:17:01:49 obsn   2 az  74 el 40 freq_MHz  1420.4000 Tsys 192.762 Tant 20.028 vlsr   22.89 glat -31.232 glon 133.843 source Trigl 
Fstart 1419.397 fstop 1421.403 spacing 0.009375 bw    2.400 fbw    2.000 MHz nfreq 256 nsam 5242880 npoint 214 integ    58 sigma    0.262 bsw 0
Spectrum     53 integration periods
 228.992  227.992  226.674  227.124  227.036  226.841  227.426  226.931  227.458  227.254  227.204  227.700  227.940  227.165  227.576  226.977  227.086  227.421  227.113  227.451  226.456  226.932  227.305  227.274  227.207  226.820  226.831  226.119  226.866  226.477  225.966  226.111  226.431  226.771  226.002  226.347  226.269  226.632  226.312  225.584  226.071  226.004  225.965  226.357  227.189  225.546  226.534  225.938  226.293  226.171  226.451  225.978  226.134  226.094  226.349  225.920  225.613  225.962  225.912  225.958  226.146  225.927  225.873  239.687  230.786  404.699  228.482  225.963  225.182  225.196  225.798  225.208  224.864  224.788  225.273  224.182  225.237  225.368  224.911  224.614  225.211  224.821  224.911  224.580  226.007  225.029  225.752  225.490  225.896  226.267  226.477  226.657  226.764  228.363  230.841  233.640  237.003  238.809  241.136  242.572  239.893  235.101  232.116  229.960  229.148  228.625  228.342  227.313  227.793  227.518  227.780  227.538  227.176  227.030  226.997  226.528  226.527  227.786  226.899  225.957  226.435  227.065  226.300  225.686  226.115  226.410  225.152  225.753  226.346  225.799  224.945  225.061  226.535  224.362  224.378  224.183  224.451  224.004  224.553  224.357  224.250  224.168  224.368  223.893  224.577  224.731  224.732  224.945  224.441  224.628  223.325  224.094  224.198  225.023  225.332  224.623  224.325  224.484  224.346  225.864  225.633  224.700  224.986  224.435  224.946  224.797  225.101  224.973  225.473  225.250  224.403  224.326  224.352  224.588  224.685  224.712  225.205  224.058  224.267  223.543  223.839  224.212  224.642  224.111  224.164  224.228  224.027  223.796  224.041  224.810  224.950  224.896  224.264  224.521  224.319  224.012  224.000  224.442  224.532  222.959  224.962  224.553  223.947  224.017  224.376  224.598  224.776  225.000  225.434  225.359  224.967  224.768  225.294  224.555 
DATE 2017:063:17:02:02 obsn   3 az  74 el 40 freq_MHz  1420.4000 Tsys 192.762 Tant 19.198 vlsr   22.89 glat -31.232 glon 133.843 source Trigl 
Fstart 1419.397 fstop 1421.403 spacing 0.009375 bw    2.400 fbw    2.000 MHz nfreq 256 nsam 5242880 npoint 214 integ    69 sigma    0.240 bsw 0
Spectrum     63 integration periods
 226.276  225.518  224.403  224.674  224.743  224.393  225.054  224.437  225.119  224.971  224.644  225.350  225.413  224.682  225.070  224.843  224.846  225.155  224.764  224.894  224.085  224.454  225.049  224.778  224.883  224.330  224.408  223.714  224.410  224.132  223.706  223.701  224.176  224.217  223.687  224.141  223.827  224.186  224.030  223.246  223.725  223.714  223.513  223.920  224.490  223.342  224.315  223.664  224.053  223.792  224.136  223.490  223.718  223.568  223.802  223.292  223.254  223.429  223.506  223.438  223.739  223.453  223.577  237.288  228.189  402.663  226.258  223.561  222.716  222.903  223.255  222.777  222.471  222.335  222.811  221.868  222.721  222.764  222.534  222.135  222.778  222.555  222.440  222.171  223.360  222.744  223.295  223.006  223.550  223.794  224.205  224.376  224.597  225.973  228.505  231.535  234.461  236.467  238.707  240.076  237.463  232.548  229.695  227.639  226.883  226.211  225.994  224.869  225.348  225.005  225.375  225.077  224.764  224.533  224.460  224.172  223.982  225.114  224.374  223.544  224.291  224.595  224.054  223.326  223.570  223.885  222.859  223.390  223.722  223.227  222.620  222.661  224.095  221.945  222.040  221.817  221.969  221.560  222.004  221.900  221.831  221.871  222.015  221.502  222.216  222.309  222.221  222.484  221.895  222.003  220.473  221.804  221.894  222.560  222.889  222.125  222.053  222.176  222.049  223.426  223.255  222.500  222.543  221.993  222.674  222.436  222.576  222.556  222.881  222.651  222.019  221.817  221.957  222.118  222.079  222.267  222.595  221.572  221.839  221.235  221.389  221.700  222.155  221.844  221.697  221.772  221.608  221.660  221.726  222.203  222.468  222.335  221.693  221.948  221.877  221.454  221.631  222.103  222.175  220.722  222.464  222.060  221.655  221.605  222.043  222.089  222.399  222.512  223.061  222.943  222.510  222.373  222.976  222.071 
DATE 2017:063:17:02:15 obsn   4 az  74 el 40 freq_MHz  1420.4000 Tsys 192.762 Tant 19.535 vlsr   22.89 glat -31.232 glon 133.843 source Trigl 
Fstart 1419.397 fstop 1421.403 spacing 0.009375 bw    2.400 fbw    2.000 MHz nfreq 256 nsam 5242880 npoint 214 integ    80 sigma    0.223 bsw 0
Spectrum     73 integration periods
 224.418  223.742  222.554  222.772  223.072  222.635  223.215  222.722  223.469  223.006  222.958  223.364  223.455  222.859  223.258  223.153  222.944  223.375  223.104  223.191  222.423  222.673  223.108  223.021  223.081  222.518  222.761  221.965  222.478  222.181  221.900  221.977  222.266  222.372  221.969  222.394  221.931  222.300  222.256  221.558  222.015  221.924  221.915  222.181  222.507  221.765  222.459  221.902  222.387  222.132  222.488  221.739  221.985  221.688  221.824  221.421  221.478  221.786  221.665  221.554  221.993  221.606  221.637  235.588  226.467  402.649  224.375  221.992  221.060  221.161  220.838  220.852  220.561  220.408  221.051  220.153  221.057  220.899  220.732  220.376  221.011  220.704  220.755  220.551  221.604  221.007  221.515  221.425  221.798  222.059  222.429  222.642  222.845  224.119  226.687  229.675  232.625  234.669  237.034  238.417  235.668  230.604  227.739  225.983  225.099  224.312  224.256  223.153  223.473  223.223  223.419  223.280  222.895  222.717  222.683  222.382  222.144  223.125  222.598  221.902  222.528  222.770  222.280  221.576  221.972  222.111  221.112  221.643  222.058  221.596  220.760  220.824  222.432  220.231  220.250  220.126  220.283  219.677  220.155  220.051  220.106  220.131  220.352  219.635  220.378  220.580  220.427  220.630  220.106  220.287  219.007  220.128  220.210  220.799  221.063  220.394  220.206  220.247  220.397  221.455  221.205  220.671  220.747  220.379  220.886  220.683  220.798  220.658  220.966  220.823  220.228  220.188  220.163  220.184  220.148  220.334  220.761  219.919  220.118  219.421  219.659  219.906  220.183  220.063  220.006  219.982  219.830  220.169  219.938  220.548  220.520  220.288  219.874  220.209  220.050  219.759  219.705  220.397  220.297  218.892  220.595  220.204  219.816  219.961  220.150  220.273  220.661  220.876  221.055  220.961  220.851  220.552  220.981  220.497 
DATE 2017:063:17:02:28 obsn   5 az  74 el 40 freq_MHz  1420.4000 Tsys 192.762 Tant 19.715 vlsr   22.89 glat -31.232 glon 133.843 source Trigl 
Fstart 1419.397 fstop 1421.403 spacing 0.009375 bw    2.400 fbw    2.000 MHz nfreq 256 nsam 5242880 npoint 214 integ    91 sigma    0.209 bsw 0
Spectrum     83 integration periods
 223.001  222.363  221.335  221.368  221.782  221.251  221.881  221.575  222.185  221.849  221.568  221.985  222.218  221.535  221.965  221.900  221.513  222.002  221.747  221.917  221.175  221.344  221.618  221.677  221.797  221.141  221.403  220.747  221.094  220.769  220.748  220.727  220.980  221.029  220.704  221.314  220.599  221.007  221.054  220.325  220.848  220.624  220.594  220.941  221.088  220.500  221.181  220.685  221.120  220.747  221.126  220.340  220.684  220.286  220.580  220.162  220.076  220.410  220.463  220.219  220.721  220.293  220.319  234.237  224.939  401.733  223.028  220.703  219.842  219.836  219.424  219.678  219.365  219.118  219.662  218.930  219.650  219.648  219.461  219.059  219.758  219.492  219.571  219.376  220.151  219.714  220.158  220.237  220.438  220.773  221.132  221.322  221.587  222.769  225.417  228.404  231.259  233.290  235.745  237.014  234.390  229.338  226.534  224.880  223.926  222.977  222.744  221.862  222.159  221.919  222.000  221.957  221.749  221.519  221.491  221.136  220.808  221.780  221.307  220.581  221.316  221.425  220.954  220.411  220.625  220.799  219.779  220.377  220.717  220.323  219.384  219.309  221.221  218.814  218.961  218.744  218.937  218.339  218.763  218.637  218.765  218.712  219.070  218.323  218.975  219.179  219.147  219.413  218.924  219.109  217.752  218.683  218.921  219.499  219.831  219.227  218.932  218.975  219.174  220.076  219.888  219.450  219.378  218.983  219.445  219.291  219.496  219.245  219.576  219.495  218.904  218.897  218.793  218.826  218.897  219.125  219.381  218.535  218.771  218.081  218.308  218.606  218.879  218.677  218.687  218.650  218.574  218.880  218.576  219.110  219.115  218.916  218.581  218.829  218.690  218.406  218.370  218.838  218.899  217.574  219.205  218.783  218.481  218.686  218.822  218.941  219.288  219.435  219.536  219.507  219.508  219.182  219.700  219.115 
DATE 2017:063:17:02:41 obsn   6 az  74 el 40 freq_MHz  1420.4000 Tsys 192.762 Tant 19.995 vlsr   22.89 glat -31.232 glon 133.843 source Trigl 
Fstart 1419.397 fstop 1421.403 spacing 0.009375 bw    2.400 fbw    2.000 MHz nfreq 256 nsam 5242880 npoint 214 integ   102 sigma    0.198 bsw 0
Spectrum     93 integration periods
 221.937  221.459  220.298  220.386  220.754  220.317  220.834  220.474  221.071  220.800  220.559  221.031  221.162  220.534  220.910  220.935  220.604  221.019  220.740  220.836  220.107  220.344  220.578  220.652  220.720  220.071  220.366  219.861  220.130  219.884  219.855  219.654  219.963  219.970  219.622  220.226  219.592  219.931  219.985  219.310  219.965  219.612  219.614  219.841  220.080  219.529  220.137  219.688  220.120  219.859  220.154  219.446  219.860  219.324  219.476  219.167  219.105  219.365  219.399  219.225  219.669  219.204  219.303  233.314  223.817  401.183  222.047  219.610  218.913  218.805  218.894  218.720  218.242  218.213  218.621  217.996  218.670  218.642  218.525  217.949  218.667  218.501  218.591  218.382  219.099  218.808  219.153  219.240  219.385  219.742  220.171  220.335  220.568  221.875  224.305  227.496  230.361  232.315  234.634  236.022  233.361  228.255  225.463  223.752  222.982  222.031  221.813  220.734  221.045  220.966  220.946  220.944  220.568  220.511  220.528  220.180  219.856  220.724  220.228  219.481  220.362  220.374  219.974  219.474  219.593  219.701  218.762  219.277  219.712  219.400  218.335  218.297  220.278  217.823  217.980  217.665  217.969  217.373  217.736  217.592  217.826  217.720  217.954  217.369  218.010  218.078  218.152  218.274  217.880  218.079  216.640  217.582  217.933  218.503  218.779  218.009  217.985  217.969  218.210  218.893  218.850  218.248  218.376  218.029  218.363  218.149  218.329  218.294  218.392  218.407  217.857  217.904  217.730  217.763  217.857  218.026  218.226  217.461  217.786  217.031  217.328  217.572  217.880  217.696  217.670  217.697  217.523  217.887  217.656  218.193  218.073  217.814  217.494  217.752  217.721  217.336  217.399  217.729  217.816  216.470  218.217  217.629  217.414  217.676  217.753  217.938  218.179  218.413  218.395  218.619  218.590  218.084  218.768  218.112 
DATE 2017:063:17:02:54 obsn   7 az  74 el 40 freq_MHz  1420.4000 Tsys 192.762 Tant 19.949 vlsr   22.89 glat -31.232 glon 133.843 source Trigl 
Fstart 1419.397 fstop 1421.403 spacing 0.009375 bw    2.400 fbw    2.000 MHz nfreq 256 nsam 5242880 npoint 214 integ   113 sigma    0.188 bsw 0
Spectrum    103 integration periods
 221.178  220.781  219.533  219.613  219.831  219.485  220.109  219.632  220.205  220.099  219.814  220.247  220.473  219.784  220.110  220.090  219.796  220.180  219.917  219.940  219.354  219.597  219.758  219.810  219.902  219.273  219.645  218.973  219.379  219.133  218.970  218.941  219.088  219.137  218.835  219.406  218.747  219.101  219.136  218.613  219.137  218.765  218.858  219.098  219.171  218.848  219.264  218.966  219.186  218.988  219.334  218.636  219.079  218.518  218.601  218.459  218.257  218.624  218.449  218.290  218.765  218.392  218.511  232.536  223.020  400.976  221.228  218.749  218.192  217.811  217.777  217.895  217.420  217.432  217.830  217.182  217.835  217.761  217.798  217.041  217.775  217.665  217.778  217.678  218.281  218.006  218.476  218.416  218.593  218.892  219.307  219.641  219.845  221.085  223.483  226.795  229.494  231.654  233.890  235.318  232.520  227.552  224.706  222.971  222.245  221.107  220.875  219.961  220.182  220.124  220.085  220.014  219.847  219.726  219.710  219.402  219.022  219.883  219.315  218.745  219.551  219.523  219.122  218.620  218.760  218.807  218.112  218.518  218.944  218.666  217.509  217.382  219.535  216.958  217.158  216.868  217.146  216.628  216.932  216.865  217.139  216.898  217.142  216.575  217.241  217.251  217.479  217.496  217.011  217.303  215.856  216.824  217.145  217.613  218.043  217.323  217.218  217.215  217.450  218.150  218.086  217.446  217.529  217.170  217.617  217.301  217.432  217.494  217.568  217.458  217.084  217.088  216.888  216.955  217.012  217.137  217.334  216.648  217.034  216.296  216.560  216.844  217.105  216.842  216.719  216.819  216.787  216.859  216.846  217.441  217.151  217.002  216.790  217.039  216.786  216.524  216.696  216.937  217.032  215.722  217.307  216.828  216.667  216.771  216.953  217.103  217.328  217.598  217.537  217.767  217.750  217.288  217.919  217.242 
DATE 2017:063:17:03:08 obsn   8 az  74 el 40 freq_MHz  1420.4000 Tsys 192.762 Tant 19.647 vlsr   22.89 glat -31.232 glon 133.843 source Trigl 
Fstart 1419.397 fstop 1421.403 spacing 0.009375 bw    2.400 fbw    2.000 MHz nfreq 256 nsam 5242880 npoint 214 integ   123 sigma    0.179 bsw 0
Spectrum    113 integration periods
 220.551  220.076  218.908  218.874  219.124  218.775  219.379  218.930  219.616  219.447  219.204  219.660  219.754  219.166  219.459  219.464  219.150  219.398  219.233  219.272  218.728  218.937  219.029  219.141  219.260  218.608  219.011  218.224  218.544  218.557  218.289  218.304  218.455  218.470  218.161  218.765  218.060  218.378  218.479  217.998  218.515  218.058  218.115  218.357  218.453  218.172  218.529  218.295  218.446  218.266  218.604  217.984  218.364  217.843  217.968  217.716  217.614  217.827  217.663  217.738  218.034  217.752  217.863  231.847  222.206  400.300  220.539  218.056  217.438  217.177  217.000  217.190  216.663  216.749  217.157  216.566  217.188  217.067  217.118  216.492  217.172  217.041  217.008  217.055  217.636  217.327  217.898  217.743  217.926  218.104  218.564  219.111  219.169  220.438  222.846  226.048  228.882  230.977  233.239  234.687  231.973  226.869  224.130  222.314  221.612  220.448  220.112  219.436  219.552  219.459  219.284  219.258  219.128  218.942  218.967  218.797  218.383  219.083  218.714  218.095  218.806  218.750  218.451  217.969  218.082  218.126  217.355  217.823  218.250  217.981  216.809  216.722  218.956  216.205  216.483  216.203  216.325  215.983  216.313  216.173  216.535  216.254  216.527  215.852  216.618  216.596  216.773  216.776  216.361  216.495  215.599  216.270  216.420  216.896  217.366  216.609  216.606  216.597  216.775  217.411  217.329  216.808  216.847  216.457  217.029  216.622  216.714  216.789  216.892  216.671  216.401  216.440  216.268  216.280  216.260  216.355  216.709  216.006  216.302  215.658  215.877  216.198  216.382  216.106  216.037  216.210  216.128  216.081  216.207  216.737  216.431  216.386  216.139  216.302  216.055  215.875  216.059  216.321  216.304  215.075  216.682  216.140  216.072  216.121  216.324  216.329  216.498  216.869  216.812  217.105  217.135  216.617  217.079  216.644 
DATE 2017:063:17:03:21 obsn   9 az  74 el 40 freq_MHz  1420.4000 Tsys 192.762 Tant 19.672 vlsr   22.89 glat -31.232 glon 133.843 source Trigl 
Fstart 1419.397 fstop 1421.403 spacing 0.009375 bw    2.400 fbw    2.000 MHz nfreq 256 nsam 5242880 npoint 214 integ   134 sigma    0.172 bsw 0
Spectrum    123 integration periods
 220.012  219.609  218.341  218.337  218.584  218.169  218.781  218.477  218.996  218.863  218.563  219.012  219.226  218.676  218.885  218.885  218.601  218.871  218.672  218.699  218.274  218.303  218.316  218.515  218.678  218.104  218.361  217.704  217.936  217.961  217.706  217.745  217.868  217.882  217.587  218.206  217.522  217.648  217.913  217.460  217.923  217.565  217.628  217.823  217.774  217.665  217.900  217.734  217.923  217.645  217.957  217.315  217.688  217.289  217.373  217.077  217.010  217.255  217.183  217.228  217.388  217.124  217.390  231.217  221.606  400.202  219.913  217.420  216.891  216.454  216.395  216.504  216.052  216.244  216.550  215.943  216.598  216.484  216.509  215.885  216.590  216.427  216.447  216.429  217.051  216.779  217.311  217.182  217.471  217.495  218.033  218.409  218.464  219.850  222.332  225.626  228.385  230.391  232.698  234.213  231.372  226.331  223.538  221.775  221.053  219.926  219.508  218.895  218.941  218.854  218.699  218.598  218.494  218.368  218.322  218.188  217.797  218.436  218.160  217.573  218.199  218.167  217.746  217.487  217.474  217.562  216.834  217.275  217.623  217.415  216.268  216.146  218.378  215.570  215.892  215.612  215.818  215.470  215.715  215.528  215.882  215.617  215.817  215.302  216.023  216.016  216.186  216.190  215.768  216.012  215.096  215.679  215.837  216.346  216.780  216.096  216.113  215.996  216.255  216.737  216.731  216.190  216.223  215.870  216.476  216.148  216.187  216.172  216.359  216.099  215.920  215.906  215.745  215.678  215.689  215.729  216.096  215.419  215.659  215.100  215.313  215.618  215.757  215.547  215.467  215.674  215.477  215.570  215.645  216.115  215.806  215.857  215.511  215.708  215.496  215.380  215.501  215.796  215.650  214.548  216.075  215.538  215.430  215.502  215.681  215.753  215.827  216.263  216.179  216.411  216.612  216.018  216.511  216.130 
DATE 2017:063:17:03:34 obsn  10 az  74 el 40 freq_MHz  1420.4000 Tsys 192.762 Tant 19.652 vlsr   22.89 glat -31.232 glon 133.843 source Trigl 
Fstart 1419.397 fstop 1421.403 spacing 0.009375 bw    2.400 fbw    2.000 MHz nfreq 256 nsam 5242880 npoint 214 integ   145 sigma    0.165 bsw 0
Spectrum    133 integration periods
 219.506  219.104  217.881  217.880  218.122  217.813  218.296  217.903  218.424  218.366  218.105  218.454  218.858  218.239  218.414  218.354  218.102  218.407  218.211  218.189  217.808  217.832  217.860  218.047  218.079  217.585  217.935  217.246  217.417  217.377  217.239  217.263  217.302  217.434  217.124  217.633  217.085  217.132  217.378  216.944  217.458  217.094  217.051  217.363  217.298  217.161  217.393  217.265  217.468  217.150  217.469  216.818  217.272  216.843  216.934  216.511  216.581  216.806  216.744  216.790  216.798  216.732  216.890  230.686  221.041  400.145  219.362  216.946  216.514  215.903  215.981  216.022  215.560  215.699  216.042  215.507  216.098  216.027  216.112  215.444  216.171  215.979  215.994  215.961  216.539  216.318  216.745  216.791  217.043  216.981  217.486  217.862  217.964  219.288  221.924  225.191  227.951  229.951  232.352  233.772  230.806  225.943  222.982  221.253  220.588  219.418  219.063  218.435  218.464  218.393  218.242  218.132  217.969  217.938  217.830  217.684  217.319  217.918  217.747  217.167  217.725  217.678  217.267  217.093  217.067  217.146  216.389  216.806  217.134  216.953  215.804  215.660  217.874  215.035  215.472  215.166  215.321  215.001  215.164  215.143  215.431  215.073  215.383  214.889  215.538  215.544  215.676  215.670  215.241  215.595  214.757  215.266  215.327  215.894  216.208  215.694  215.652  215.551  215.752  216.172  216.240  215.741  215.825  215.427  215.979  215.666  215.678  215.622  215.883  215.574  215.495  215.441  215.232  215.118  215.203  215.184  215.575  214.974  215.054  214.616  214.888  215.043  215.224  215.111  215.037  215.156  214.938  215.194  215.238  215.716  215.366  215.313  215.000  215.222  215.063  214.870  215.003  215.292  215.158  214.100  215.570  215.097  214.988  214.931  215.211  215.283  215.300  215.865  215.714  215.943  216.082  215.493  215.945  215.690 
DATE 2017:063:17:03:47 obsn  11 az  74 el 40 freq_MHz  1420.4000 Tsys 192.762 Tant 19.352 vlsr   22.89 glat -31.232 glon 133.843 source Trigl 
Fstart 1419.397 fstop 1421.403 spacing 0.009375 bw    2.400 fbw    2.000 MHz nfreq 256 nsam 5242880 npoint 214 integ   156 sigma    0.159 bsw 0
Spectrum    143 integration periods
 219.050  218.688  217.493  217.420  217.635  217.369  217.944  217.553  217.926  217.971  217.727  217.999  218.458  217.914  217.979  217.878  217.662  217.897  217.711  217.882  217.306  217.397  217.382  217.641  217.663  217.158  217.315  216.849  216.999  216.966  216.834  216.823  216.898  216.986  216.660  217.237  216.600  216.706  216.873  216.510  216.989  216.609  216.666  216.942  216.866  216.651  216.867  216.811  217.011  216.690  217.110  216.405  216.805  216.412  216.384  216.162  216.212  216.393  216.246  216.317  216.317  216.199  216.448  230.269  220.531  400.231  218.848  216.541  216.017  215.337  215.576  215.561  215.111  215.174  215.578  215.049  215.629  215.597  215.739  215.033  215.686  215.544  215.482  215.488  216.171  215.890  216.279  216.294  216.545  216.515  217.064  217.438  217.506  218.873  221.463  224.766  227.425  229.514  231.928  233.305  230.361  225.439  222.516  220.789  220.241  218.990  218.593  217.990  218.055  217.990  217.805  217.766  217.549  217.452  217.342  217.276  216.870  217.429  217.338  216.734  217.268  217.223  216.806  216.697  216.759  216.689  215.997  216.408  216.678  216.583  215.436  215.265  217.415  214.516  215.023  214.665  214.857  214.602  214.711  214.741  215.091  214.692  214.868  214.418  215.150  215.109  215.170  215.148  214.843  215.099  214.467  214.876  214.964  215.500  215.716  215.149  215.165  215.165  215.223  215.629  215.773  215.367  215.394  215.034  215.470  215.289  215.216  215.095  215.444  215.138  215.006  215.049  214.764  214.663  214.737  214.743  215.058  214.607  214.665  214.212  214.404  214.614  214.752  214.724  214.641  214.665  214.453  214.743  214.778  215.275  214.931  214.803  214.558  214.742  214.640  214.444  214.508  214.844  214.692  213.688  215.178  214.692  214.558  214.459  214.782  214.838  214.911  215.462  215.240  215.488  215.639  215.027  215.477  215.233 
DATE 2017:063:17:04:00 obsn  12 az  74 el 40 freq_MHz  1420.4000 Tsys 192.762 Tant 18.826 vlsr   22.89 glat -31.232 glon 133.843 source Trigl 
Fstart 1419.397 fstop 1421.403 spacing 0.009375 bw    2.400 fbw    2.000 MHz nfreq 256 nsam 5242880 npoint 214 integ   167 sigma    0.154 bsw 0
Spectrum    153 integration periods
 218.673  218.259  217.097  216.873  217.235  216.988  217.516  217.163  217.489  217.569  217.351  217.559  218.030  217.540  217.576  217.456  217.221  217.446  217.290  217.541  216.877  217.047  216.907  217.201  217.180  216.750  216.820  216.461  216.557  216.523  216.369  216.436  216.500  216.560  216.183  216.752  216.163  216.276  216.371  216.048  216.473  216.223  216.183  216.526  216.482  216.202  216.370  216.366  216.588  216.252  216.595  215.917  216.382  215.972  216.035  215.752  215.891  215.921  215.890  215.810  215.898  215.730  215.991  229.829  219.982  399.660  218.317  216.111  215.589  214.874  215.198  215.274  214.745  214.783  215.081  214.499  215.217  215.167  215.374  214.688  215.229  215.062  215.109  215.102  215.746  215.492  215.845  215.822  216.102  216.080  216.649  217.037  217.055  218.539  221.088  224.364  227.041  229.120  231.538  232.869  229.974  225.081  222.083  220.408  219.868  218.621  218.155  217.571  217.609  217.503  217.332  217.350  217.180  216.998  216.882  216.894  216.501  216.987  216.869  216.346  216.779  216.689  216.416  216.264  216.352  216.396  215.615  215.963  216.185  216.203  214.979  214.826  217.034  214.076  214.576  214.177  214.384  214.211  214.257  214.282  214.645  214.241  214.432  214.048  214.705  214.648  214.716  214.749  214.410  214.823  214.118  214.417  214.575  215.048  215.198  214.782  214.780  214.684  214.838  215.183  215.356  214.986  214.966  214.554  215.070  214.953  214.792  214.705  214.963  214.743  214.529  214.538  214.358  214.244  214.372  214.321  214.632  214.147  214.212  213.820  214.054  214.138  214.301  214.281  214.235  214.238  214.059  214.365  214.401  214.778  214.460  214.319  214.218  214.305  214.220  214.022  214.088  214.414  214.301  213.305  214.728  214.278  214.202  214.026  214.337  214.360  214.479  215.089  214.791  215.068  215.229  214.556  215.052  214.869 
DATE 2017:063:17:04:13 obsn  13 az  74 el 40 freq_MHz  1420.4000 Tsys 192.762 Tant 19.033 vlsr   22.89 glat -31.232 glon 133.843 source Trigl 
Fstart 1419.397 fstop 1421.403 spacing 0.009375 bw    2.400 fbw    2.000 MHz nfreq 256 nsam 5242880 npoint 214 integ   178 sigma    0.149 bsw 0
Spectrum    163 integration periods
 218.301  217.900  216.746  216.540  216.925  216.733  217.157  216.814  217.197  217.214  217.023  217.212  217.686  217.147  217.217  217.160  216.890  217.124  217.011  217.180  216.590  216.699  216.563  216.880  216.811  216.344  216.503  216.133  216.214  216.143  216.004  216.073  216.191  216.217  215.885  216.476  215.865  215.936  216.023  215.764  216.165  215.927  215.861  216.133  216.156  215.912  216.021  216.053  216.242  215.942  216.208  215.607  215.951  215.592  215.673  215.422  215.544  215.557  215.535  215.437  215.516  215.406  215.616  229.439  219.567  399.629  218.004  215.678  215.276  214.517  214.819  214.928  214.423  214.465  214.759  214.192  214.880  214.811  215.062  214.404  214.904  214.714  214.806  214.752  215.410  215.164  215.410  215.454  215.740  215.720  216.309  216.710  216.740  218.202  220.768  224.043  226.721  228.790  231.226  232.528  229.615  224.711  221.697  220.108  219.485  218.299  217.780  217.181  217.259  217.093  216.929  217.050  216.843  216.634  216.501  216.577  216.100  216.662  216.492  215.986  216.439  216.270  216.117  215.904  215.947  216.044  215.240  215.613  215.837  215.853  214.633  214.501  216.668  213.795  214.235  213.821  213.972  213.791  213.824  213.897  214.330  213.929  214.151  213.700  214.352  214.234  214.358  214.477  214.055  214.408  213.801  214.100  214.242  214.719  214.765  214.484  214.479  214.336  214.435  214.884  214.974  214.605  214.680  214.248  214.722  214.576  214.418  214.263  214.584  214.408  214.155  214.197  214.026  213.888  213.985  213.969  214.229  213.780  213.803  213.558  213.758  213.766  213.912  213.901  213.861  213.811  213.728  213.908  213.993  214.350  214.055  213.976  213.857  213.928  213.852  213.683  213.753  214.049  213.916  213.016  214.314  213.908  213.853  213.662  214.056  214.029  214.103  214.677  214.435  214.713  214.890  214.185  214.698  214.497 
DATE 2017:063:17:04:26 obsn  14 az  74 el 40 freq_MHz  1420.4000 Tsys 192.762 Tant 19.165 vlsr   22.89 glat -31.232 glon 133.843 source Trigl 
Fstart 1419.397 fstop 1421.403 spacing 0.009375 bw    2.400 fbw    2.000 MHz nfreq 256 nsam 5242880 npoint 214 integ   189 sigma    0.145 bsw 0
Spectrum    173 integration periods
 218.023  217.509  216.363  216.210  216.586  216.451  216.774  216.505  216.911  216.852  216.729  216.868  217.369  216.908  216.985  216.844  216.640  216.822  216.708  216.850  216.263  216.408  216.178  216.555  216.458  216.070  216.183  215.864  215.943  215.869  215.703  215.784  215.893  215.891  215.600  216.125  215.553  215.623  215.707  215.399  215.842  215.600  215.516  215.872  215.859  215.604  215.693  215.732  215.812  215.601  215.891  215.317  215.724  215.238  215.243  215.078  215.222  215.217  215.248  215.098  215.196  215.153  215.276  229.142  219.091  399.575  217.637  215.374  214.967  214.162  214.605  214.572  214.105  214.177  214.409  213.981  214.577  214.450  214.777  214.134  214.565  214.442  214.520  214.468  215.089  214.852  215.129  215.194  215.414  215.377  215.947  216.417  216.471  217.873  220.464  223.800  226.417  228.476  230.925  232.154  229.334  224.420  221.390  219.823  219.111  217.996  217.437  216.920  216.953  216.823  216.648  216.703  216.554  216.371  216.202  216.224  215.836  216.373  216.169  215.671  216.141  215.916  215.853  215.606  215.581  215.714  214.939  215.277  215.457  215.566  214.408  214.201  216.356  213.460  213.911  213.544  213.671  213.462  213.568  213.608  214.013  213.475  213.818  213.408  214.065  213.922  214.043  214.189  213.771  214.027  213.332  213.815  213.977  214.373  214.332  214.207  214.109  214.007  214.119  214.588  214.683  214.295  214.288  213.904  214.427  214.253  214.161  213.923  214.249  214.083  213.890  213.874  213.662  213.568  213.648  213.682  213.904  213.524  213.524  213.316  213.442  213.465  213.556  213.569  213.511  213.505  213.433  213.600  213.651  213.947  213.697  213.682  213.581  213.604  213.490  213.395  213.414  213.756  213.550  212.714  214.006  213.538  213.469  213.321  213.676  213.759  213.753  214.362  214.136  214.365  214.605  213.923  214.384  214.182 
DATE 2017:063:17:04:40 obsn  15 az  74 el 40 freq_MHz  1420.4000 Tsys 192.762 Tant 19.203 vlsr   22.89 glat -31.232 glon 133.843 source Trigl 
Fstart 1419.397 fstop 1421.403 spacing 0.009375 bw    2.400 fbw    2.000 MHz nfreq 256 nsam 5242880 npoint 214 integ   200 sigma    0.141 bsw 0
Spectrum    183 integration periods
 217.740  217.226  216.142  215.958  216.353  216.163  216.501  216.237  216.649  216.647  216.422  216.597  217.069  216.580  216.721  216.581  216.402  216.528  216.474  216.566  215.996  216.141  215.951  216.274  216.181  215.790  215.885  215.573  215.725  215.586  215.419  215.519  215.654  215.623  215.305  215.777  215.289  215.319  215.405  215.170  215.609  215.298  215.206  215.585  215.586  215.308  215.389  215.496  215.464  215.327  215.620  215.034  215.473  215.016  214.969  214.808  214.965  214.924  214.938  214.790  214.961  214.886  214.986  228.791  218.772  399.311  217.342  215.069  214.660  213.872  214.585  214.310  213.868  213.870  214.147  213.742  214.321  214.111  214.439  213.829  214.267  214.215  214.264  214.179  214.881  214.586  214.839  214.855  215.058  215.165  215.684  216.146  216.203  217.608  220.263  223.601  226.133  228.258  230.665  231.817  229.016  224.172  221.071  219.554  218.804  217.706  217.126  216.672  216.642  216.511  216.355  216.342  216.276  216.064  215.885  215.862  215.554  216.043  215.840  215.391  215.853  215.662  215.595  215.325  215.274  215.454  214.680  214.959  215.190  215.262  214.101  213.932  216.096  213.214  213.633  213.255  213.421  213.164  213.324  213.282  213.760  213.227  213.474  213.119  213.747  213.649  213.746  213.866  213.522  213.868  213.118  213.527  213.637  214.082  214.094  213.949  213.849  213.765  213.875  214.367  214.427  214.044  214.100  213.645  214.152  213.938  213.938  213.697  213.923  213.779  213.538  213.593  213.417  213.270  213.406  213.371  213.576  213.206  213.245  213.033  213.195  213.290  213.234  213.291  213.261  213.165  213.133  213.302  213.389  213.613  213.408  213.402  213.312  213.265  213.187  213.110  213.152  213.486  213.280  212.458  213.760  213.273  213.197  213.065  213.382  213.486  213.461  214.087  213.866  214.138  214.338  213.675  214.105  213.910 
DATE 2017:063:17:04:53 obsn  16 az  74 el 40 freq_MHz  1420.4000 Tsys 192.762 Tant 19.349 vlsr   22.89 glat -31.232 glon 133.843 source Trigl 
Fstart 1419.397 fstop 1421.403 spacing 0.009375 bw    2.400 fbw    2.000 MHz nfreq 256 nsam 5242880 npoint 214 integ   211 sigma    0.137 bsw 0
Spectrum    193 integration periods
 217.484  216.927  215.899  215.813  216.130  215.913  216.300  215.998  216.482  216.453  216.236  216.365  216.814  216.324  216.480  216.416  216.184  216.299  216.209  216.358  215.767  215.877  215.750  216.036  215.888  215.526  215.634  215.337  215.543  215.355  215.168  215.244  215.443  215.329  215.064  215.573  215.081  215.133  215.162  214.965  215.350  215.092  214.999  215.392  215.346  215.029  215.153  215.304  215.271  215.103  215.374  214.791  215.263  214.839  214.739  214.548  214.706  214.672  214.762  214.563  214.761  214.704  214.735  228.621  218.465  399.201  217.115  214.853  214.405  213.660  214.081  214.020  213.600  213.658  213.903  213.529  214.090  213.869  214.167  213.600  214.029  214.021  214.105  213.985  214.635  214.398  214.599  214.648  214.851  214.966  215.474  215.933  216.026  217.353  220.083  223.394  225.916  228.038  230.445  231.543  228.686  223.902  220.807  219.244  218.522  217.506  216.868  216.440  216.445  216.325  216.125  216.154  216.041  215.842  215.682  215.637  215.246  215.819  215.612  215.164  215.611  215.389  215.352  215.092  215.064  215.232  214.463  214.702  214.961  215.015  213.839  213.705  215.874  212.969  213.397  213.040  213.163  212.935  213.080  213.039  213.505  212.966  213.271  212.823  213.534  213.407  213.537  213.624  213.296  213.679  212.875  213.263  213.447  213.855  213.908  213.754  213.696  213.558  213.648  214.123  214.227  213.769  213.900  213.433  213.934  213.703  213.735  213.444  213.680  213.579  213.260  213.320  213.216  213.045  213.153  213.139  213.332  212.915  212.948  212.800  212.940  213.081  212.992  213.065  213.040  212.897  212.869  213.052  213.165  213.360  213.144  213.191  213.086  213.012  212.916  212.818  212.993  213.194  213.058  212.255  213.503  213.010  212.937  212.846  213.107  213.230  213.256  213.867  213.660  213.879  214.119  213.429  213.828  213.666 
DATE 2017:063:17:05:06 obsn  17 az  74 el 40 freq_MHz  1420.4000 Tsys 192.762 Tant 18.584 vlsr   22.89 glat -31.232 glon 133.843 source Trigl 
Fstart 1419.397 fstop 1421.403 spacing 0.009375 bw    2.400 fbw    2.000 MHz nfreq 256 nsam 5242880 npoint 214 integ   222 sigma    0.134 bsw 0
Spectrum    203 integration periods
 217.245  216.623  215.700  215.579  215.884  215.707  216.134  215.810  216.230  216.252  216.061  216.175  216.534  216.155  216.258  216.161  215.957  216.085  215.972  216.125  215.545  215.656  215.515  215.820  215.668  215.283  215.400  215.119  215.330  215.150  214.920  215.023  215.182  215.104  214.829  215.340  214.837  214.878  214.874  214.771  215.098  214.854  214.750  215.205  215.166  214.774  214.961  215.003  214.984  214.861  215.134  214.576  215.000  214.594  214.524  214.305  214.491  214.468  214.617  214.290  214.541  214.466  214.502  228.422  218.180  398.969  216.951  214.626  214.194  213.437  213.701  213.776  213.366  213.431  213.680  213.260  213.811  213.647  213.908  213.390  213.786  213.775  213.866  213.769  214.378  214.193  214.325  214.388  214.587  214.747  215.257  215.694  215.854  217.164  219.900  223.202  225.727  227.803  230.204  231.299  228.385  223.649  220.523  218.998  218.248  217.269  216.564  216.163  216.256  216.091  215.880  215.948  215.848  215.588  215.424  215.401  215.029  215.536  215.375  214.958  215.345  215.124  215.114  214.843  214.843  215.025  214.270  214.456  214.757  214.811  213.587  213.480  215.690  212.716  213.111  212.826  212.976  212.743  212.871  212.856  213.231  212.743  213.034  212.644  213.240  213.095  213.266  213.410  213.036  213.453  212.550  213.039  213.208  213.602  213.682  213.580  213.480  213.321  213.427  213.860  213.977  213.518  213.704  213.232  213.660  213.439  213.479  213.239  213.444  213.364  213.085  213.100  212.980  212.860  212.848  212.974  213.042  212.686  212.721  212.599  212.683  212.846  212.715  212.831  212.825  212.644  212.720  212.857  212.922  213.126  212.934  212.968  212.856  212.756  212.699  212.588  212.804  212.970  212.802  212.055  213.216  212.790  212.734  212.637  212.855  213.013  212.999  213.616  213.388  213.653  213.855  213.248  213.571  213.434 
DATE 2017:063:17:05:27 obsn  18 az  74 el 41 freq_MHz  1420.4000 Tsys 192.762 Tant 18.778 vlsr   22.89 glat -31.232 glon 133.843 source Trigl 
Fstart 1419.397 fstop 1421.403 spacing 0.009375 bw    2.400 fbw    2.000 MHz nfreq 256 nsam 5242880 npoint 214 integ   233 sigma    0.131 bsw 0
Spectrum    213 integration periods
 217.032  216.388  215.491  215.416  215.667  215.488  215.872  215.593  216.014  216.048  215.858  215.929  216.274  215.966  215.984  215.941  215.751  215.870  215.744  215.902  215.332  215.413  215.316  215.577  215.425  215.063  215.198  214.947  215.151  214.899  214.672  214.796  214.944  214.883  214.588  215.088  214.615  214.678  214.651  214.573  214.829  214.628  214.510  214.917  214.909  214.582  214.713  214.794  214.790  214.698  214.962  214.331  214.770  214.382  214.316  214.073  214.243  214.233  214.431  214.071  214.331  214.202  214.290  228.206  217.869  398.350  216.736  214.417  213.936  213.196  213.508  213.491  213.146  213.196  213.448  213.056  213.577  213.450  213.684  213.228  213.588  213.527  213.667  213.583  214.120  214.013  214.058  214.179  214.388  214.519  215.086  215.498  215.678  216.969  219.729  222.993  225.500  227.589  229.982  230.987  228.141  223.397  220.281  218.791  218.027  217.058  216.394  215.929  215.999  215.888  215.644  215.686  215.586  215.315  215.247  215.175  214.833  215.353  215.190  214.781  215.102  214.895  214.873  214.574  214.645  214.791  214.112  214.204  214.531  214.662  213.423  213.210  215.443  212.469  212.908  212.619  212.758  212.545  212.667  212.627  213.032  212.486  212.801  212.452  212.993  212.881  213.092  213.230  212.847  213.187  212.290  212.864  213.002  213.371  213.494  213.394  213.236  213.117  213.202  213.570  213.728  213.350  213.516  213.053  213.432  213.217  213.284  212.997  213.174  213.093  212.830  212.887  212.783  212.594  212.691  212.764  212.835  212.443  212.538  212.363  212.497  212.586  212.534  212.640  212.628  212.438  212.518  212.528  212.720  212.949  212.776  212.718  212.631  212.560  212.498  212.343  212.615  212.763  212.585  211.870  212.974  212.622  212.514  212.414  212.636  212.835  212.755  213.491  213.119  213.387  213.680  213.048  213.319  213.180 
DATE 2017:063:17:05:40 obsn  19 az  74 el 41 freq_MHz  1420.4000 Tsys 192.762 Tant 18.594 vlsr   22.89 glat -31.232 glon 133.843 source Trigl 
Fstart 1419.397 fstop 1421.403 spacing 0.009375 bw    2.400 fbw    2.000 MHz nfreq 256 nsam 5242880 npoint 214 integ   244 sigma    0.128 bsw 0
Spectrum    223 integration periods
 216.873  216.168  215.324  215.277  215.447  215.360  215.667  215.398  215.825  215.843  215.702  215.746  216.067  215.814  215.760  215.729  215.538  215.684  215.550  215.685  215.156  215.197  215.106  215.431  215.225  214.836  214.975  214.793  214.920  214.680  214.463  214.665  214.761  214.703  214.406  214.929  214.430  214.488  214.456  214.424  214.641  214.443  214.321  214.711  214.690  214.402  214.525  214.526  214.631  214.536  214.740  214.110  214.542  214.165  214.126  213.866  214.048  214.120  214.302  213.895  214.163  214.025  214.085  228.007  217.709  396.962  216.576  214.198  213.725  213.053  213.285  213.322  212.999  213.028  213.318  212.859  213.386  213.225  213.581  213.036  213.399  213.385  213.471  213.473  213.958  213.776  213.877  213.981  214.231  214.341  214.878  215.354  215.491  216.820  219.528  222.779  225.281  227.352  229.789  230.737  227.999  223.183  220.090  218.628  217.892  216.920  216.196  215.730  215.823  215.685  215.379  215.517  215.489  215.172  215.074  215.014  214.654  215.110  215.013  214.565  214.923  214.722  214.680  214.411  214.451  214.663  213.956  214.061  214.366  214.522  213.221  213.031  215.268  212.251  212.743  212.490  212.587  212.359  212.459  212.386  212.923  212.335  212.620  212.266  212.761  212.698  212.968  213.042  212.638  213.003  211.994  212.719  212.826  213.235  213.285  213.203  213.044  212.925  213.095  213.418  213.507  213.155  213.264  212.826  213.295  212.966  213.108  212.806  212.976  212.871  212.610  212.717  212.594  212.406  212.464  212.615  212.611  212.215  212.311  212.183  212.322  212.388  212.312  212.445  212.469  212.278  212.284  212.390  212.522  212.794  212.582  212.489  212.428  212.331  212.264  212.135  212.419  212.572  212.391  211.710  212.733  212.436  212.364  212.223  212.428  212.640  212.593  213.283  212.893  213.186  213.516  212.872  213.075  213.049 
DATE 2017:063:17:05:53 obsn  20 az  74 el 41 freq_MHz  1420.4000 Tsys 192.762 Tant 19.093 vlsr   22.89 glat -31.232 glon 133.843 source Trigl 
Fstart 1419.397 fstop 1421.403 spacing 0.009375 bw    2.400 fbw    2.000 MHz nfreq 256 nsam 5242880 npoint 214 integ   254 sigma    0.125 bsw 0
Spectrum    233 integration periods
 216.666  215.992  215.175  215.075  215.282  215.153  215.429  215.231  215.610  215.688  215.531  215.553  215.912  215.614  215.609  215.553  215.336  215.545  215.368  215.551  214.979  215.033  214.964  215.263  215.043  214.687  214.795  214.685  214.732  214.525  214.303  214.468  214.623  214.550  214.245  214.713  214.240  214.299  214.261  214.244  214.471  214.270  214.137  214.599  214.546  214.252  214.409  214.362  214.460  214.351  214.569  213.963  214.446  214.005  213.910  213.670  213.840  213.973  214.149  213.701  213.975  213.856  213.923  227.848  217.495  395.597  216.334  214.011  213.601  212.864  213.156  213.137  212.805  212.858  213.162  212.705  213.189  213.111  213.453  212.912  213.221  213.210  213.316  213.281  213.765  213.614  213.718  213.847  214.057  214.155  214.665  215.229  215.334  216.610  219.382  222.604  225.087  227.163  229.598  230.501  227.804  223.008  219.915  218.444  217.756  216.760  216.016  215.542  215.593  215.529  215.197  215.358  215.343  214.968  214.947  214.872  214.470  214.923  214.816  214.425  214.738  214.550  214.534  214.274  214.301  214.543  213.759  213.905  214.200  214.332  213.066  212.920  215.154  212.081  212.629  212.323  212.384  212.180  212.312  212.200  212.760  212.210  212.443  212.115  212.615  212.538  212.765  212.906  212.430  212.741  211.794  212.560  212.679  213.026  213.067  213.064  212.877  212.762  212.914  213.181  213.358  213.014  213.099  212.675  213.125  212.812  212.946  212.582  212.835  212.716  212.465  212.527  212.457  212.263  212.295  212.437  212.486  212.061  212.139  211.994  212.106  212.215  212.135  212.285  212.290  212.081  212.101  212.222  212.283  212.587  212.421  212.326  212.250  212.191  212.152  211.943  212.195  212.399  212.224  211.566  212.529  212.244  212.217  212.010  212.369  212.453  212.421  213.113  212.786  213.005  213.361  212.715  212.893  212.926 
DATE 2017:063:17:06:06 obsn  21 az  74 el 41 freq_MHz  1420.4000 Tsys 192.762 Tant 19.257 vlsr   22.89 glat -31.232 glon 133.843 source Trigl 
Fstart 1419.397 fstop 1421.403 spacing 0.009375 bw    2.400 fbw    2.000 MHz nfreq 256 nsam 5242880 npoint 214 integ   265 sigma    0.122 bsw 0
Spectrum    243 integration periods
 216.552  215.787  215.063  214.906  215.145  215.032  215.287  215.104  215.439  215.528  215.437  215.359  215.727  215.500  215.465  215.417  215.250  215.381  215.175  215.394  214.792  214.860  214.865  215.100  214.890  214.566  214.643  214.559  214.525  214.420  214.150  214.315  214.437  214.390  214.119  214.507  214.141  214.124  214.086  214.099  214.370  214.105  213.982  214.431  214.469  214.163  214.262  214.172  214.352  214.223  214.418  213.842  214.294  213.824  213.739  213.496  213.693  213.829  213.958  213.532  213.816  213.709  213.738  227.766  217.367  394.275  216.183  213.860  213.450  212.750  213.004  212.928  212.664  212.736  212.993  212.560  213.020  212.964  213.350  212.762  213.115  213.063  213.170  213.147  213.618  213.458  213.583  213.737  213.903  214.036  214.513  215.100  215.218  216.466  219.263  222.446  224.940  227.019  229.448  230.345  227.734  222.890  219.779  218.294  217.632  216.637  215.859  215.408  215.503  215.363  215.078  215.194  215.205  214.793  214.757  214.749  214.378  214.838  214.651  214.326  214.609  214.423  214.409  214.202  214.172  214.462  213.628  213.820  214.066  214.188  212.932  212.775  215.082  211.930  212.530  212.163  212.235  212.060  212.167  212.118  212.643  212.061  212.316  212.006  212.491  212.428  212.658  212.772  212.269  212.652  211.680  212.440  212.528  212.838  212.936  212.948  212.750  212.624  212.783  213.028  213.234  212.878  212.980  212.550  212.989  212.700  212.766  212.448  212.694  212.581  212.279  212.373  212.299  212.165  212.196  212.302  212.390  211.948  212.014  211.804  211.963  212.056  211.941  212.115  212.138  211.979  211.965  212.108  212.096  212.422  212.273  212.184  212.125  211.996  212.039  211.816  212.063  212.225  212.093  211.429  212.344  212.085  212.109  211.840  212.214  212.319  212.293  213.000  212.641  212.851  213.256  212.650  212.725  212.799 
DATE 2017:063:17:06:19 obsn  22 az  74 el 41 freq_MHz  1420.4000 Tsys 192.762 Tant 19.167 vlsr   22.89 glat -31.232 glon 133.843 source Trigl 
Fstart 1419.397 fstop 1421.403 spacing 0.009375 bw    2.400 fbw    2.000 MHz nfreq 256 nsam 5242880 npoint 214 integ   276 sigma    0.120 bsw 0
Spectrum    253 integration periods
 216.442  215.673  214.961  214.781  215.023  214.877  215.177  215.007  215.289  215.392  215.335  215.250  215.548  215.419  215.369  215.267  215.105  215.267  215.069  215.248  214.696  214.743  214.680  215.012  214.807  214.418  214.524  214.425  214.388  214.292  214.003  214.221  214.338  214.266  213.972  214.430  214.059  214.003  213.973  213.982  214.251  213.944  213.865  214.310  214.358  214.029  214.108  214.072  214.254  214.121  214.310  213.704  214.165  213.696  213.623  213.369  213.553  213.746  213.832  213.360  213.710  213.598  213.617  227.620  217.271  393.150  216.081  213.759  213.357  212.712  212.986  212.810  212.556  212.603  212.853  212.427  212.899  212.825  213.238  212.665  213.029  212.970  213.044  213.077  213.476  213.358  213.471  213.586  213.773  213.940  214.404  214.956  215.076  216.338  219.095  222.303  224.862  226.832  229.276  230.201  227.624  222.820  219.683  218.187  217.514  216.530  215.755  215.275  215.390  215.241  214.929  215.060  215.054  214.673  214.675  214.596  214.248  214.701  214.546  214.239  214.477  214.336  214.293  214.126  214.033  214.336  213.556  213.712  213.967  214.062  212.821  212.647  214.993  211.860  212.436  212.011  212.159  211.960  212.027  212.039  212.538  211.941  212.213  211.894  212.351  212.302  212.534  212.618  212.223  212.520  211.578  212.374  212.397  212.680  212.827  212.873  212.642  212.522  212.650  212.911  213.121  212.747  212.803  212.446  212.853  212.595  212.665  212.254  212.580  212.466  212.171  212.259  212.159  212.047  212.031  212.158  212.259  211.749  211.886  211.692  211.827  211.913  211.795  211.956  211.983  211.853  211.830  211.886  211.966  212.311  212.103  212.045  211.983  211.902  211.904  211.689  211.905  212.058  212.018  211.322  212.231  211.944  211.976  211.714  212.053  212.164  212.201  212.842  212.519  212.687  213.141  212.520  212.561  212.628 
DATE 2017:063:17:06:33 obsn  23 az  74 el 41 freq_MHz  1420.4000 Tsys 192.762 Tant 19.260 vlsr   22.89 glat -31.232 glon 133.843 source Trigl 
Fstart 1419.397 fstop 1421.403 spacing 0.009375 bw    2.400 fbw    2.000 MHz nfreq 256 nsam 5242880 npoint 214 integ   287 sigma    0.117 bsw 0
Spectrum    263 integration periods
 216.284  215.519  214.895  214.696  214.875  214.698  215.046  214.838  215.171  215.335  215.220  215.123  215.433  215.319  215.306  215.137  214.946  215.144  214.916  215.116  214.566  214.642  214.521  214.920  214.714  214.316  214.392  214.330  214.245  214.186  213.900  214.104  214.228  214.176  213.884  214.296  213.962  213.906  213.871  213.880  214.101  213.804  213.747  214.197  214.287  213.942  213.991  213.978  214.149  213.986  214.176  213.599  214.029  213.596  213.481  213.259  213.409  213.624  213.764  213.220  213.594  213.490  213.478  227.500  217.171  392.071  215.981  213.637  213.265  212.570  212.884  212.691  212.428  212.486  212.760  212.318  212.792  212.741  213.142  212.584  212.967  212.871  212.938  212.985  213.360  213.247  213.373  213.464  213.606  213.809  214.322  214.861  214.939  216.254  218.994  222.164  224.702  226.745  229.174  230.088  227.478  222.716  219.607  218.085  217.443  216.409  215.656  215.160  215.264  215.117  214.809  214.903  214.948  214.558  214.565  214.468  214.167  214.537  214.420  214.120  214.378  214.223  214.165  214.019  213.963  214.262  213.445  213.593  213.817  213.988  212.680  212.553  214.917  211.745  212.335  211.919  212.041  211.814  211.937  211.945  212.438  211.833  212.068  211.790  212.240  212.164  212.487  212.485  212.069  212.345  211.435  212.253  212.266  212.578  212.697  212.738  212.542  212.390  212.513  212.775  213.011  212.628  212.672  212.322  212.716  212.486  212.553  212.101  212.514  212.342  212.061  212.134  212.065  211.924  211.906  212.032  212.139  211.657  211.745  211.559  211.744  211.787  211.671  211.839  211.884  211.751  211.683  211.769  211.857  212.215  211.936  211.915  211.841  211.789  211.746  211.574  211.801  211.972  211.910  211.221  212.157  211.839  211.882  211.636  211.929  212.035  212.112  212.746  212.437  212.572  213.010  212.425  212.441  212.507 
DATE 2017:063:17:06:46 obsn  24 az  74 el 41 freq_MHz  1420.4000 Tsys 192.762 Tant 19.888 vlsr   22.89 glat -31.232 glon 133.843 source Trigl 
Fstart 1419.397 fstop 1421.403 spacing 0.009375 bw    2.400 fbw    2.000 MHz nfreq 256 nsam 5242880 npoint 214 integ   298 sigma    0.115 bsw 0
Spectrum    273 integration periods
 216.192  215.445  214.809  214.580  214.754  214.556  214.946  214.714  215.090  215.214  215.122  215.032  215.347  215.197  215.172  214.996  214.860  215.008  214.791  215.028  214.479  214.512  214.396  214.838  214.630  214.180  214.296  214.262  214.135  214.059  213.826  214.057  214.092  214.069  213.763  214.171  213.906  213.781  213.748  213.794  213.978  213.667  213.653  214.113  214.212  213.853  213.867  213.859  214.036  213.926  214.059  213.479  213.889  213.502  213.397  213.142  213.300  213.540  213.660  213.152  213.496  213.393  213.372  227.418  217.131  391.130  215.884  213.511  213.120  212.414  212.826  212.588  212.354  212.365  212.627  212.167  212.711  212.621  213.061  212.524  212.871  212.783  212.833  212.895  213.272  213.158  213.242  213.384  213.488  213.669  214.189  214.752  214.889  216.148  218.875  222.074  224.608  226.700  228.994  229.948  227.402  222.601  219.536  218.010  217.348  216.322  215.585  215.116  215.164  215.047  214.651  214.834  214.835  214.482  214.451  214.383  214.095  214.448  214.338  214.027  214.272  214.095  214.085  213.913  213.847  214.146  213.334  213.502  213.694  213.874  212.601  212.504  214.844  211.625  212.240  211.782  211.909  211.721  211.864  211.866  212.339  211.755  211.923  211.692  212.159  212.072  212.399  212.399  211.987  212.242  211.379  212.129  212.180  212.463  212.628  212.566  212.429  212.276  212.418  212.656  212.906  212.536  212.569  212.231  212.632  212.396  212.421  211.992  212.442  212.189  211.931  212.011  212.012  211.811  211.805  211.914  212.033  211.569  211.628  211.475  211.616  211.689  211.562  211.715  211.771  211.683  211.558  211.609  211.787  212.139  211.841  211.824  211.701  211.675  211.630  211.492  211.713  211.862  211.830  211.104  212.007  211.710  211.761  211.531  211.812  211.929  212.018  212.617  212.328  212.472  212.905  212.308  212.323  212.415 
DATE 2017:063:17:06:59 obsn  25 az  74 el 41 freq_MHz  1420.4000 Tsys 192.762 Tant 20.729 vlsr   22.89 glat -31.232 glon 133.843 source Trigl 
Fstart 1419.397 fstop 1421.403 spacing 0.009375 bw    2.400 fbw    2.000 MHz nfreq 256 nsam 5242880 npoint 214 integ   309 sigma    0.113 bsw 0
Spectrum    283 integration periods
 216.142  215.379  214.759  214.570  214.706  214.500  214.897  214.662  215.024  215.100  215.079  215.036  215.270  215.137  215.099  214.912  214.852  214.974  214.748  214.974  214.444  214.472  214.346  214.789  214.567  214.112  214.218  214.217  214.075  214.004  213.766  213.983  214.065  214.049  213.693  214.140  213.863  213.765  213.687  213.755  213.910  213.588  213.592  214.036  214.203  213.790  213.818  213.753  213.989  213.895  214.063  213.463  213.874  213.446  213.348  213.109  213.276  213.512  213.606  213.129  213.430  213.328  213.316  227.460  217.102  390.194  215.777  213.459  213.087  212.337  212.745  212.491  212.346  212.327  212.596  212.132  212.687  212.574  212.980  212.426  212.809  212.738  212.771  212.867  213.184  213.083  213.197  213.368  213.459  213.608  214.146  214.703  214.824  216.115  218.845  222.019  224.552  226.669  228.901  229.892  227.352  222.533  219.567  217.924  217.345  216.271  215.501  215.095  215.143  214.968  214.592  214.811  214.832  214.465  214.409  214.309  214.049  214.403  214.291  213.990  214.223  214.074  214.002  213.868  213.815  214.090  213.283  213.405  213.594  213.832  212.577  212.416  214.803  211.583  212.189  211.728  211.865  211.648  211.825  211.811  212.267  211.710  211.900  211.635  212.104  212.022  212.390  212.332  211.928  212.191  211.176  212.075  212.112  212.367  212.568  212.497  212.424  212.275  212.364  212.616  212.885  212.463  212.540  212.224  212.553  212.376  212.374  211.953  212.380  212.152  211.884  211.971  211.932  211.732  211.742  211.877  211.997  211.459  211.602  211.418  211.579  211.645  211.521  211.620  211.684  211.602  211.515  211.540  211.712  212.106  211.755  211.777  211.583  211.564  211.544  211.398  211.657  211.781  211.787  211.039  211.945  211.654  211.653  211.471  211.752  211.874  211.960  212.556  212.286  212.401  212.838  212.276  212.259  212.353 
DATE 2017:063:17:07:12 obsn  26 az  74 el 41 freq_MHz  1420.4000 Tsys 192.762 Tant 20.427 vlsr   22.89 glat -31.232 glon 133.843 source Trigl 
Fstart 1419.397 fstop 1421.403 spacing 0.009375 bw    2.400 fbw    2.000 MHz nfreq 256 nsam 5242880 npoint 214 integ   320 sigma    0.111 bsw 0
Spectrum    293 integration periods
 216.055  215.339  214.742  214.518  214.623  214.401  214.872  214.578  214.915  214.999  215.038  215.012  215.219  215.056  215.030  214.837  214.761  214.960  214.710  214.940  214.393  214.378  214.252  214.748  214.512  214.062  214.202  214.143  214.005  213.888  213.702  213.945  214.021  213.983  213.651  214.079  213.784  213.685  213.607  213.683  213.887  213.516  213.565  213.988  214.164  213.693  213.796  213.702  213.943  213.839  214.000  213.392  213.815  213.418  213.299  213.046  213.226  213.494  213.568  213.048  213.345  213.311  213.254  227.431  217.060  389.325  215.725  213.413  213.034  212.320  212.761  212.423  212.304  212.237  212.531  212.056  212.634  212.520  212.937  212.382  212.792  212.718  212.712  212.845  213.171  213.069  213.149  213.318  213.369  213.562  214.090  214.669  214.775  216.026  218.806  221.944  224.507  226.603  228.857  229.798  227.348  222.467  219.478  217.878  217.284  216.198  215.442  215.049  215.102  214.911  214.531  214.740  214.776  214.421  214.345  214.256  213.990  214.393  214.252  213.974  214.180  214.098  213.990  213.808  213.807  214.058  213.236  213.385  213.506  213.729  212.528  212.349  214.792  211.531  212.127  211.685  211.792  211.594  211.791  211.749  212.219  211.656  211.855  211.580  212.011  211.950  212.347  212.282  211.896  212.133  211.091  212.027  212.039  212.290  212.468  212.362  212.349  212.198  212.311  212.533  212.786  212.415  212.472  212.185  212.457  212.323  212.292  211.868  212.315  212.134  211.809  211.899  211.849  211.639  211.667  211.801  211.961  211.363  211.524  211.381  211.524  211.575  211.427  211.561  211.657  211.547  211.467  211.499  211.636  212.032  211.672  211.707  211.518  211.501  211.486  211.314  211.598  211.753  211.731  210.978  211.879  211.603  211.560  211.402  211.675  211.811  211.894  212.518  212.211  212.353  212.777  212.193  212.236  212.283 
DATE 2017:063:17:07:25 obsn  27 az  74 el 41 freq_MHz  1420.4000 Tsys 192.762 Tant 20.411 vlsr   22.89 glat -31.232 glon 133.843 source Trigl 
Fstart 1419.397 fstop 1421.403 spacing 0.009375 bw    2.400 fbw    2.000 MHz nfreq 256 nsam 5242880 npoint 214 integ   331 sigma    0.109 bsw 0
Spectrum    303 integration periods
 215.975  215.300  214.686  214.481  214.548  214.342  214.800  214.486  214.894  214.979  215.015  214.916  215.172  215.026  214.988  214.795  214.728  214.902  214.653  214.903  214.339  214.316  214.263  214.751  214.476  214.019  214.133  214.108  213.938  213.845  213.658  213.894  213.969  213.939  213.631  214.008  213.720  213.605  213.527  213.622  213.816  213.487  213.517  213.896  214.126  213.632  213.691  213.655  213.959  213.794  213.953  213.325  213.750  213.370  213.225  213.023  213.191  213.440  213.557  212.994  213.304  213.266  213.222  227.395  216.975  388.290  215.640  213.361  213.013  212.273  212.615  212.392  212.244  212.194  212.498  212.030  212.581  212.451  212.873  212.350  212.728  212.672  212.630  212.799  213.105  212.992  213.082  213.279  213.328  213.518  214.011  214.636  214.743  215.946  218.737  221.909  224.436  226.548  228.790  229.715  227.295  222.363  219.404  217.860  217.263  216.133  215.386  214.976  215.057  214.825  214.462  214.647  214.747  214.377  214.295  214.242  213.951  214.350  214.215  213.916  214.114  214.062  213.941  213.775  213.732  214.021  213.183  213.317  213.456  213.635  212.454  212.260  214.740  211.509  212.062  211.606  211.714  211.529  211.724  211.674  212.148  211.646  211.802  211.500  211.960  211.874  212.274  212.257  211.822  212.095  211.127  211.987  211.984  212.237  212.397  212.311  212.288  212.135  212.269  212.430  212.703  212.364  212.396  212.114  212.405  212.285  212.253  211.821  212.248  212.053  211.782  211.851  211.773  211.567  211.578  211.761  211.891  211.288  211.475  211.339  211.472  211.505  211.359  211.487  211.578  211.510  211.433  211.421  211.594  211.985  211.604  211.602  211.470  211.415  211.406  211.265  211.517  211.711  211.680  210.931  211.797  211.564  211.532  211.355  211.604  211.739  211.868  212.444  212.176  212.264  212.695  212.100  212.162  212.175 
DATE 2017:063:17:07:38 obsn  28 az  74 el 41 freq_MHz  1420.4000 Tsys 192.762 Tant 20.509 vlsr   22.89 glat -31.232 glon 133.843 source Trigl 
Fstart 1419.397 fstop 1421.403 spacing 0.009375 bw    2.400 fbw    2.000 MHz nfreq 256 nsam 5242880 npoint 214 integ   342 sigma    0.108 bsw 0
Spectrum    313 integration periods
 215.890  215.303  214.619  214.444  214.475  214.308  214.720  214.442  214.811  214.919  214.965  214.868  215.132  214.981  214.926  214.742  214.670  214.848  214.589  214.858  214.276  214.294  214.223  214.719  214.409  214.023  214.113  214.069  213.870  213.765  213.625  213.836  213.942  213.937  213.627  213.978  213.669  213.572  213.497  213.593  213.780  213.438  213.471  213.868  214.115  213.587  213.613  213.591  213.912  213.761  213.911  213.301  213.666  213.308  213.156  212.991  213.141  213.368  213.522  212.913  213.256  213.222  213.144  227.408  216.993  387.504  215.607  213.291  212.941  212.276  212.696  212.338  212.221  212.107  212.440  211.961  212.549  212.416  212.823  212.286  212.665  212.643  212.596  212.806  213.046  212.953  213.009  213.239  213.285  213.463  213.961  214.579  214.660  215.911  218.700  221.870  224.348  226.516  228.778  229.683  227.280  222.325  219.340  217.823  217.246  216.096  215.355  214.943  214.996  214.766  214.438  214.606  214.673  214.321  214.232  214.228  213.913  214.306  214.170  213.829  214.039  214.021  213.874  213.732  213.689  213.949  213.146  213.251  213.415  213.604  212.376  212.233  214.721  211.506  212.026  211.555  211.654  211.456  211.676  211.658  212.108  211.602  211.760  211.455  211.887  211.786  212.204  212.167  211.737  211.931  211.062  211.958  211.964  212.192  212.324  212.296  212.260  212.087  212.218  212.370  212.660  212.350  212.344  212.072  212.349  212.240  212.220  211.788  212.203  212.013  211.699  211.786  211.715  211.510  211.507  211.721  211.862  211.247  211.435  211.272  211.414  211.445  211.271  211.376  211.539  211.454  211.406  211.359  211.508  211.940  211.573  211.508  211.420  211.349  211.309  211.206  211.431  211.663  211.649  210.884  211.745  211.512  211.495  211.294  211.524  211.691  211.815  212.380  212.084  212.232  212.659  212.028  212.095  212.089 
DATE 2017:063:17:07:51 obsn  29 az  74 el 41 freq_MHz  1420.4000 Tsys 192.762 Tant 20.343 vlsr   22.89 glat -31.232 glon 133.843 source Trigl 
Fstart 1419.397 fstop 1421.403 spacing 0.009375 bw    2.400 fbw    2.000 MHz nfreq 256 nsam 5242880 npoint 214 integ   353 sigma    0.106 bsw 0
Spectrum    323 integration periods
 215.816  215.240  214.569  214.380  214.408  214.259  214.652  214.378  214.762  214.843  214.961  214.801  215.080  214.903  214.881  214.686  214.607  214.788  214.531  214.813  214.248  214.225  214.170  214.683  214.360  213.994  214.041  214.040  213.826  213.704  213.568  213.763  213.869  213.862  213.531  213.915  213.664  213.484  213.416  213.498  213.719  213.383  213.413  213.785  214.091  213.510  213.594  213.558  213.888  213.738  213.867  213.279  213.605  213.267  213.107  212.947  213.079  213.349  213.476  212.891  213.212  213.226  213.129  227.355  216.976  386.773  215.576  213.229  212.906  212.285  212.484  212.317  212.195  212.066  212.395  211.917  212.483  212.384  212.796  212.245  212.617  212.620  212.585  212.782  213.000  212.929  212.966  213.207  213.270  213.407  213.933  214.506  214.642  215.873  218.656  221.835  224.329  226.472  228.708  229.592  227.222  222.279  219.322  217.757  217.217  216.079  215.306  214.923  214.955  214.723  214.365  214.540  214.610  214.281  214.187  214.192  213.867  214.261  214.122  213.798  213.968  213.990  213.817  213.699  213.649  213.903  213.104  213.164  213.355  213.547  212.315  212.186  214.648  211.455  211.966  211.513  211.621  211.379  211.614  211.586  212.032  211.585  211.710  211.380  211.837  211.751  212.155  212.105  211.677  211.875  210.903  211.925  211.915  212.092  212.269  212.252  212.178  212.034  212.174  212.315  212.582  212.309  212.292  212.042  212.281  212.164  212.172  211.739  212.145  211.944  211.647  211.739  211.631  211.433  211.447  211.686  211.811  211.199  211.388  211.218  211.385  211.377  211.200  211.337  211.462  211.407  211.321  211.322  211.419  211.920  211.533  211.442  211.353  211.292  211.284  211.166  211.371  211.596  211.594  210.827  211.708  211.466  211.467  211.249  211.432  211.643  211.725  212.321  212.031  212.153  212.576  211.965  212.031  212.047 
DATE 2017:063:17:08:12 obsn  30 az  75 el 41 freq_MHz  1420.4000 Tsys 192.762 Tant 20.152 vlsr   22.89 glat -31.232 glon 133.843 source Trigl 
Fstart 1419.397 fstop 1421.403 spacing 0.009375 bw    2.400 fbw    2.000 MHz nfreq 256 nsam 5242880 npoint 214 integ   364 sigma    0.104 bsw 0
Spectrum    333 integration periods
 215.755  215.203  214.536  214.327  214.347  214.233  214.593  214.329  214.706  214.794  214.947  214.757  215.029  214.855  214.804  214.607  214.545  214.716  214.497  214.763  214.212  214.175  214.120  214.671  214.326  213.981  213.990  214.001  213.767  213.637  213.506  213.714  213.787  213.829  213.500  213.863  213.634  213.446  213.360  213.437  213.644  213.328  213.367  213.733  214.049  213.435  213.546  213.496  213.836  213.698  213.837  213.248  213.556  213.250  213.080  212.897  213.027  213.314  213.447  212.851  213.153  213.204  213.091  227.249  216.925  385.683  215.553  213.168  212.834  212.255  212.405  212.235  212.161  212.021  212.347  211.904  212.450  212.355  212.800  212.203  212.583  212.619  212.571  212.757  212.926  212.864  212.911  213.192  213.208  213.365  213.881  214.488  214.605  215.831  218.612  221.774  224.288  226.442  228.677  229.565  227.198  222.239  219.262  217.735  217.164  216.055  215.281  214.878  214.939  214.653  214.321  214.495  214.558  214.219  214.102  214.143  213.845  214.237  214.066  213.780  213.898  213.939  213.757  213.661  213.627  213.893  213.047  213.120  213.319  213.491  212.223  212.125  214.607  211.401  211.957  211.423  211.590  211.333  211.559  211.546  212.007  211.542  211.698  211.340  211.793  211.729  212.163  212.035  211.639  211.804  210.855  211.898  211.847  212.000  212.192  212.182  212.122  211.994  212.117  212.316  212.522  212.264  212.242  212.017  212.234  212.098  212.121  211.686  212.073  211.851  211.600  211.677  211.577  211.388  211.418  211.628  211.775  211.167  211.342  211.160  211.338  211.327  211.109  211.279  211.380  211.388  211.258  211.247  211.338  211.898  211.510  211.437  211.327  211.278  211.248  211.114  211.339  211.573  211.561  210.781  211.694  211.401  211.410  211.217  211.392  211.571  211.717  212.264  211.978  212.107  212.515  211.924  211.980  211.990 
DATE 2017:063:17:08:26 obsn  31 az  75 el 41 freq_MHz  1420.4000 Tsys 192.762 Tant 20.495 vlsr   22.89 glat -31.232 glon 133.843 source Trigl 
Fstart 1419.397 fstop 1421.403 spacing 0.009375 bw    2.400 fbw    2.000 MHz nfreq 256 nsam 5242880 npoint 214 integ   375 sigma    0.103 bsw 0
Spectrum    343 integration periods
 215.736  215.145  214.475  214.236  214.288  214.174  214.539  214.285  214.684  214.724  214.904  214.692  215.002  214.831  214.764  214.568  214.472  214.656  214.427  214.720  214.166  214.150  214.094  214.660  214.244  213.926  213.982  213.943  213.676  213.599  213.461  213.654  213.715  213.778  213.461  213.829  213.645  213.432  213.322  213.401  213.586  213.263  213.337  213.698  214.024  213.395  213.474  213.443  213.798  213.639  213.794  213.220  213.512  213.187  213.052  212.883  212.986  213.298  213.391  212.792  213.095  213.186  213.076  227.135  216.844  384.522  215.503  213.115  212.806  212.270  212.282  212.205  212.105  211.989  212.247  211.874  212.420  212.318  212.751  212.164  212.558  212.584  212.559  212.755  212.850  212.791  212.885  213.129  213.169  213.341  213.802  214.492  214.574  215.796  218.570  221.709  224.254  226.454  228.642  229.566  227.222  222.233  219.237  217.716  217.120  216.019  215.214  214.831  214.904  214.587  214.292  214.453  214.544  214.160  214.061  214.119  213.817  214.189  214.021  213.730  213.825  213.905  213.751  213.596  213.613  213.866  213.005  213.078  213.298  213.432  212.130  212.083  214.593  211.361  211.924  211.404  211.562  211.312  211.547  211.514  211.975  211.507  211.621  211.282  211.732  211.689  212.104  211.993  211.585  211.816  210.794  211.813  211.827  211.952  212.154  212.168  212.088  211.978  212.093  212.291  212.497  212.216  212.210  212.015  212.195  212.044  212.083  211.654  212.017  211.810  211.553  211.631  211.511  211.325  211.370  211.582  211.719  211.132  211.281  211.129  211.321  211.307  211.073  211.248  211.329  211.358  211.221  211.248  211.305  211.859  211.480  211.362  211.255  211.211  211.200  211.065  211.273  211.548  211.543  210.718  211.593  211.338  211.387  211.171  211.359  211.500  211.690  212.214  211.917  212.062  212.487  211.876  211.928  211.928 
DATE 2017:063:17:08:39 obsn  32 az  75 el 41 freq_MHz  1420.4000 Tsys 192.762 Tant 20.285 vlsr   22.89 glat -31.232 glon 133.843 source Trigl 
Fstart 1419.397 fstop 1421.403 spacing 0.009375 bw    2.400 fbw    2.000 MHz nfreq 256 nsam 5242880 npoint 214 integ   386 sigma    0.101 bsw 0
Spectrum    353 integration periods
 215.698  215.104  214.451  214.202  214.233  214.122  214.485  214.233  214.654  214.672  214.890  214.661  214.928  214.798  214.749  214.503  214.401  214.581  214.381  214.696  214.106  214.117  214.060  214.596  214.199  213.876  213.953  213.921  213.643  213.557  213.409  213.647  213.680  213.748  213.406  213.778  213.639  213.393  213.275  213.360  213.561  213.217  213.296  213.635  213.969  213.374  213.425  213.392  213.752  213.620  213.774  213.193  213.453  213.128  213.033  212.867  212.950  213.254  213.315  212.747  213.069  213.136  213.028  227.093  216.808  383.217  215.437  213.094  212.775  212.264  212.157  212.180  212.115  211.938  212.187  211.834  212.394  212.259  212.739  212.139  212.507  212.536  212.500  212.717  212.821  212.764  212.840  213.070  213.131  213.312  213.751  214.477  214.522  215.781  218.543  221.673  224.192  226.449  228.615  229.558  227.201  222.196  219.161  217.684  217.067  215.986  215.165  214.830  214.892  214.514  214.243  214.411  214.563  214.149  214.033  214.075  213.790  214.109  214.022  213.708  213.791  213.901  213.693  213.555  213.572  213.857  212.970  213.054  213.239  213.395  212.102  212.090  214.524  211.342  211.911  211.374  211.545  211.282  211.523  211.451  211.952  211.466  211.600  211.245  211.679  211.637  212.091  211.934  211.563  211.732  210.681  211.774  211.798  211.917  212.137  212.116  212.060  211.972  212.066  212.243  212.447  212.148  212.158  211.969  212.149  212.010  212.014  211.602  211.984  211.777  211.545  211.604  211.482  211.324  211.329  211.554  211.660  211.079  211.246  211.057  211.272  211.274  211.044  211.204  211.302  211.326  211.188  211.191  211.259  211.822  211.408  211.317  211.217  211.128  211.169  211.011  211.235  211.497  211.552  210.674  211.560  211.282  211.355  211.148  211.311  211.482  211.675  212.155  211.869  211.994  212.444  211.818  211.897  211.876 
DATE 2017:063:17:08:52 obsn  33 az  75 el 41 freq_MHz  1420.4000 Tsys 192.762 Tant 20.339 vlsr   22.89 glat -31.232 glon 133.843 source Trigl 
Fstart 1419.397 fstop 1421.403 spacing 0.009375 bw    2.400 fbw    2.000 MHz nfreq 256 nsam 5242880 npoint 214 integ   396 sigma    0.100 bsw 0
Spectrum    363 integration periods
 215.682  215.074  214.429  214.164  214.185  214.017  214.449  214.186  214.583  214.592  214.869  214.622  214.915  214.745  214.701  214.441  214.349  214.550  214.338  214.645  214.069  214.059  214.006  214.592  214.145  213.848  213.919  213.870  213.595  213.550  213.363  213.613  213.641  213.721  213.369  213.728  213.606  213.339  213.253  213.369  213.506  213.202  213.253  213.591  213.928  213.358  213.371  213.357  213.709  213.581  213.748  213.116  213.426  213.075  212.955  212.847  212.910  213.218  213.276  212.690  213.041  213.084  213.006  227.013  216.736  382.041  215.401  213.065  212.713  212.232  212.035  212.131  212.053  211.896  212.171  211.810  212.338  212.244  212.707  212.079  212.484  212.502  212.484  212.677  212.788  212.730  212.785  213.013  213.096  213.254  213.709  214.446  214.510  215.772  218.548  221.634  224.185  226.424  228.569  229.559  227.189  222.142  219.073  217.644  217.007  215.941  215.157  214.811  214.834  214.511  214.203  214.348  214.523  214.087  213.969  214.045  213.728  214.044  213.996  213.693  213.742  213.837  213.698  213.476  213.544  213.840  212.983  212.996  213.184  213.331  212.075  212.057  214.469  211.301  211.912  211.329  211.478  211.247  211.489  211.421  211.941  211.464  211.590  211.204  211.617  211.607  212.047  211.880  211.542  211.704  210.797  211.744  211.725  211.925  212.100  212.065  212.017  211.941  212.032  212.212  212.383  212.117  212.103  211.943  212.113  211.967  211.954  211.537  211.958  211.742  211.516  211.560  211.433  211.270  211.260  211.502  211.622  211.043  211.186  211.041  211.232  211.252  211.014  211.164  211.290  211.286  211.141  211.129  211.241  211.787  211.355  211.300  211.177  211.071  211.129  210.967  211.184  211.479  211.521  210.653  211.492  211.218  211.302  211.121  211.278  211.421  211.649  212.138  211.852  211.944  212.382  211.758  211.868  211.794 
DATE 2017:063:17:09:05 obsn  34 az  75 el 41 freq_MHz  1420.4000 Tsys 192.762 Tant 20.371 vlsr   22.89 glat -31.232 glon 133.843 source Trigl 
Fstart 1419.397 fstop 1421.403 spacing 0.009375 bw    2.400 fbw    2.000 MHz nfreq 256 nsam 5242880 npoint 214 integ   407 sigma    0.099 bsw 0
Spectrum    373 integration periods
 215.625  215.014  214.402  214.118  214.134  213.957  214.403  214.143  214.526  214.555  214.815  214.552  214.891  214.703  214.684  214.384  214.335  214.513  214.293  214.629  214.046  214.020  213.970  214.570  214.088  213.798  213.880  213.873  213.572  213.506  213.336  213.593  213.625  213.688  213.329  213.698  213.577  213.291  213.197  213.339  213.478  213.176  213.225  213.583  213.927  213.307  213.344  213.343  213.669  213.534  213.736  213.081  213.410  213.045  212.945  212.806  212.846  213.163  213.277  212.654  212.998  213.059  212.998  226.935  216.698  380.954  215.383  213.016  212.671  212.138  212.031  212.051  211.987  211.892  212.158  211.803  212.307  212.192  212.681  212.054  212.413  212.474  212.459  212.649  212.714  212.667  212.734  212.972  213.062  213.223  213.676  214.433  214.483  215.780  218.511  221.609  224.171  226.403  228.574  229.531  227.205  222.116  219.021  217.606  216.999  215.876  215.113  214.783  214.817  214.488  214.150  214.364  214.504  214.033  213.948  214.033  213.726  213.999  213.977  213.670  213.694  213.791  213.620  213.449  213.497  213.837  212.959  212.972  213.139  213.278  212.056  212.002  214.356  211.279  211.897  211.314  211.450  211.205  211.480  211.364  211.876  211.422  211.554  211.195  211.572  211.569  212.048  211.870  211.521  211.635  210.706  211.726  211.701  211.890  212.040  212.062  211.971  211.890  211.990  212.186  212.356  212.077  212.029  211.920  212.071  211.911  211.914  211.512  211.918  211.689  211.469  211.497  211.354  211.255  211.232  211.476  211.631  211.006  211.150  211.017  211.227  211.198  210.974  211.133  211.247  211.240  211.090  211.091  211.229  211.759  211.339  211.276  211.132  211.048  211.084  210.942  211.142  211.455  211.477  210.628  211.476  211.197  211.243  211.083  211.233  211.373  211.632  212.106  211.808  211.923  212.361  211.735  211.815  211.756 
DATE 2017:063:17:09:18 obsn  35 az  75 el 41 freq_MHz  1420.4000 Tsys 192.762 Tant 20.683 vlsr   22.89 glat -31.232 glon 133.843 source Trigl 
Fstart 1419.397 fstop 1421.403 spacing 0.009375 bw    2.400 fbw    2.000 MHz nfreq 256 nsam 5242880 npoint 214 integ   418 sigma    0.097 bsw 0
Spectrum    383 integration periods
 215.587  214.990  214.421  214.096  214.109  213.961  214.358  214.121  214.483  214.534  214.788  214.533  214.848  214.661  214.637  214.352  214.298  214.468  214.248  214.591  214.024  214.009  213.922  214.546  214.092  213.753  213.830  213.829  213.542  213.461  213.312  213.576  213.579  213.637  213.294  213.661  213.553  213.244  213.122  213.296  213.424  213.139  213.201  213.560  213.916  213.233  213.307  213.270  213.610  213.502  213.701  213.088  213.388  213.017  212.913  212.798  212.823  213.172  213.225  212.603  212.950  213.018  212.987  226.862  216.677  379.934  215.349  212.996  212.633  212.076  211.994  212.012  212.000  211.865  212.159  211.795  212.287  212.157  212.695  212.004  212.350  212.439  212.449  212.604  212.666  212.626  212.684  212.940  213.058  213.159  213.611  214.421  214.423  215.750  218.494  221.574  224.153  226.395  228.583  229.552  227.171  222.093  219.003  217.553  216.954  215.836  215.097  214.720  214.774  214.443  214.139  214.318  214.506  214.006  213.944  213.967  213.683  213.991  213.935  213.638  213.636  213.754  213.598  213.411  213.459  213.803  212.931  212.916  213.100  213.226  212.006  211.980  214.309  211.236  211.877  211.257  211.423  211.130  211.447  211.345  211.861  211.408  211.548  211.186  211.537  211.537  212.026  211.841  211.467  211.615  210.563  211.706  211.696  211.878  211.955  212.061  211.924  211.851  211.954  212.161  212.313  211.995  212.009  211.892  212.058  211.896  211.877  211.473  211.882  211.665  211.443  211.453  211.342  211.221  211.216  211.417  211.616  210.949  211.090  210.968  211.184  211.167  210.932  211.096  211.191  211.218  211.046  211.070  211.180  211.693  211.286  211.272  211.102  211.039  211.063  210.894  211.103  211.442  211.466  210.605  211.436  211.177  211.208  211.046  211.212  211.350  211.598  212.074  211.752  211.899  212.306  211.717  211.799  211.710 
DATE 2017:063:17:09:31 obsn  36 az  75 el 41 freq_MHz  1420.4000 Tsys 192.762 Tant 20.534 vlsr   22.89 glat -31.232 glon 133.843 source Trigl 
Fstart 1419.397 fstop 1421.403 spacing 0.009375 bw    2.400 fbw    2.000 MHz nfreq 256 nsam 5242880 npoint 214 integ   429 sigma    0.096 bsw 0
Spectrum    393 integration periods
 215.535  214.940  214.396  214.045  214.052  213.942  214.332  214.107  214.449  214.525  214.764  214.501  214.795  214.611  214.605  214.348  214.263  214.421  214.221  214.557  214.018  213.969  213.908  214.504  214.042  213.712  213.819  213.817  213.497  213.424  213.300  213.568  213.554  213.589  213.246  213.630  213.563  213.230  213.080  213.264  213.385  213.115  213.164  213.519  213.900  213.238  213.265  213.211  213.589  213.482  213.705  213.057  213.353  212.999  212.887  212.759  212.772  213.147  213.149  212.580  212.906  213.019  212.975  226.816  216.634  378.998  215.297  212.936  212.597  212.048  211.879  211.968  211.969  211.857  212.118  211.795  212.251  212.122  212.679  211.995  212.313  212.410  212.440  212.574  212.654  212.614  212.664  212.926  213.017  213.135  213.581  214.411  214.385  215.747  218.466  221.556  224.120  226.397  228.587  229.542  227.171  222.089  218.970  217.534  216.947  215.782  215.042  214.650  214.749  214.430  214.111  214.276  214.478  213.961  213.927  213.965  213.637  213.921  213.895  213.601  213.604  213.707  213.588  213.356  213.395  213.766  212.916  212.888  213.068  213.206  211.956  211.959  214.253  211.197  211.851  211.221  211.415  211.073  211.425  211.293  211.829  211.405  211.516  211.174  211.520  211.494  212.038  211.786  211.464  211.601  210.595  211.684  211.666  211.813  211.907  211.991  211.901  211.807  211.931  212.116  212.283  211.960  211.984  211.864  212.013  211.837  211.877  211.457  211.810  211.649  211.404  211.400  211.298  211.193  211.173  211.407  211.604  210.881  211.023  210.921  211.148  211.119  210.906  211.041  211.184  211.169  211.042  211.068  211.182  211.708  211.254  211.245  211.084  210.996  211.018  210.839  211.055  211.408  211.458  210.588  211.385  211.153  211.188  211.012  211.180  211.313  211.562  212.014  211.719  211.852  212.264  211.673  211.780  211.674 
DATE 2017:063:17:09:44 obsn  37 az  75 el 41 freq_MHz  1420.4000 Tsys 192.762 Tant 20.632 vlsr   22.89 glat -31.232 glon 133.843 source Trigl 
Fstart 1419.397 fstop 1421.403 spacing 0.009375 bw    2.400 fbw    2.000 MHz nfreq 256 nsam 5242880 npoint 214 integ   440 sigma    0.095 bsw 0
Spectrum    403 integration periods
 215.504  214.914  214.371  214.001  214.035  213.892  214.313  214.082  214.414  214.505  214.722  214.461  214.745  214.584  214.585  214.357  214.252  214.396  214.192  214.522  213.994  213.924  213.882  214.500  214.007  213.707  213.785  213.772  213.460  213.381  213.264  213.534  213.539  213.571  213.261  213.619  213.553  213.215  213.066  213.243  213.383  213.085  213.176  213.496  213.902  213.229  213.243  213.203  213.576  213.469  213.656  213.033  213.314  212.982  212.841  212.719  212.730  213.145  213.119  212.539  212.866  212.987  212.936  226.758  216.633  378.124  215.258  212.896  212.551  211.987  211.842  211.955  211.938  211.832  212.065  211.783  212.239  212.127  212.658  211.977  212.274  212.380  212.430  212.566  212.627  212.583  212.642  212.889  213.004  213.083  213.552  214.409  214.365  215.727  218.437  221.524  224.108  226.410  228.571  229.557  227.175  222.059  218.948  217.505  216.954  215.754  215.023  214.648  214.748  214.391  214.100  214.240  214.457  213.926  213.901  213.935  213.584  213.885  213.876  213.581  213.566  213.696  213.533  213.313  213.365  213.744  212.886  212.847  213.019  213.190  211.936  211.927  214.220  211.167  211.844  211.208  211.372  211.038  211.380  211.295  211.793  211.373  211.500  211.131  211.505  211.462  211.996  211.784  211.436  211.597  210.589  211.643  211.618  211.780  211.870  211.937  211.855  211.766  211.898  212.083  212.233  211.938  211.941  211.856  211.976  211.802  211.850  211.446  211.816  211.605  211.375  211.374  211.280  211.172  211.141  211.382  211.583  210.858  210.979  210.874  211.129  211.120  210.892  210.989  211.126  211.164  211.027  211.024  211.163  211.692  211.220  211.225  211.050  210.961  211.018  210.795  211.021  211.380  211.458  210.542  211.333  211.114  211.137  210.956  211.124  211.294  211.570  211.998  211.724  211.831  212.231  211.635  211.721  211.643 
DATE 2017:063:17:09:57 obsn  38 az  75 el 41 freq_MHz  1420.4000 Tsys 192.762 Tant 19.981 vlsr   22.89 glat -31.232 glon 133.843 source Trigl 
Fstart 1419.397 fstop 1421.403 spacing 0.009375 bw    2.400 fbw    2.000 MHz nfreq 256 nsam 5242880 npoint 214 integ   451 sigma    0.094 bsw 0
Spectrum    413 integration periods
 215.472  214.865  214.360  213.960  213.998  213.857  214.270  214.037  214.358  214.464  214.675  214.421  214.692  214.567  214.566  214.314  214.209  214.335  214.163  214.510  213.961  213.877  213.881  214.462  213.967  213.639  213.779  213.733  213.436  213.322  213.231  213.516  213.529  213.541  213.190  213.599  213.541  213.179  213.051  213.220  213.337  213.056  213.146  213.468  213.865  213.235  213.194  213.160  213.548  213.424  213.621  212.999  213.282  212.923  212.821  212.669  212.695  213.129  213.072  212.503  212.836  212.999  212.895  226.696  216.597  377.270  215.244  212.874  212.514  211.959  211.864  211.931  211.940  211.792  212.025  211.765  212.188  212.092  212.632  211.940  212.267  212.352  212.377  212.524  212.586  212.550  212.607  212.857  212.985  213.058  213.512  214.412  214.372  215.699  218.425  221.493  224.114  226.425  228.578  229.524  227.144  222.034  218.913  217.490  216.901  215.720  214.968  214.628  214.695  214.358  214.078  214.201  214.447  213.879  213.868  213.897  213.550  213.842  213.836  213.538  213.522  213.666  213.483  213.270  213.319  213.740  212.853  212.798  212.963  213.156  211.874  211.910  214.193  211.118  211.816  211.153  211.331  211.015  211.361  211.269  211.740  211.345  211.478  211.110  211.481  211.454  211.987  211.780  211.411  211.535  210.584  211.589  211.570  211.739  211.826  211.905  211.846  211.722  211.852  212.042  212.211  211.915  211.903  211.830  211.931  211.738  211.796  211.418  211.787  211.589  211.351  211.317  211.218  211.141  211.114  211.346  211.571  210.834  210.946  210.850  211.106  211.088  210.860  210.959  211.097  211.149  210.985  210.967  211.131  211.662  211.176  211.174  211.009  210.944  210.960  210.768  210.969  211.341  211.461  210.498  211.309  211.069  211.085  210.903  211.104  211.244  211.531  211.986  211.693  211.826  212.223  211.604  211.688  211.614 
DATE 2017:063:17:10:11 obsn  39 az  75 el 41 freq_MHz  1420.4000 Tsys 192.762 Tant 19.890 vlsr   22.89 glat -31.232 glon 133.843 source Trigl 
Fstart 1419.397 fstop 1421.403 spacing 0.009375 bw    2.400 fbw    2.000 MHz nfreq 256 nsam 5242880 npoint 214 integ   462 sigma    0.093 bsw 0
Spectrum    423 integration periods
 215.446  214.801  214.347  213.919  213.934  213.820  214.225  214.017  214.321  214.441  214.654  214.374  214.668  214.532  214.539  214.278  214.187  214.262  214.105  214.454  213.900  213.835  213.847  214.421  213.912  213.601  213.719  213.678  213.406  213.299  213.200  213.473  213.490  213.494  213.158  213.578  213.509  213.133  212.998  213.202  213.322  213.034  213.080  213.416  213.810  213.153  213.165  213.128  213.507  213.370  213.619  212.978  213.213  212.891  212.802  212.629  212.653  213.115  213.056  212.476  212.796  212.953  212.847  226.634  216.588  376.457  215.222  212.819  212.475  211.882  211.839  211.879  211.882  211.769  211.989  211.752  212.154  212.073  212.600  211.902  212.225  212.325  212.351  212.523  212.557  212.529  212.584  212.853  212.948  213.007  213.492  214.370  214.329  215.674  218.406  221.496  224.101  226.402  228.572  229.500  227.115  221.978  218.851  217.420  216.884  215.684  214.916  214.570  214.678  214.314  214.058  214.161  214.458  213.824  213.834  213.871  213.548  213.803  213.793  213.492  213.454  213.627  213.444  213.235  213.247  213.713  212.809  212.759  212.911  213.085  211.829  211.862  214.136  211.060  211.811  211.128  211.308  211.004  211.351  211.223  211.714  211.272  211.440  211.048  211.432  211.394  211.951  211.751  211.367  211.494  210.677  211.549  211.536  211.687  211.790  211.871  211.813  211.680  211.822  212.010  212.169  211.880  211.858  211.784  211.900  211.714  211.742  211.386  211.782  211.554  211.290  211.266  211.189  211.079  211.070  211.336  211.540  210.812  210.905  210.836  211.070  211.072  210.840  210.896  211.071  211.103  210.926  210.929  211.061  211.627  211.135  211.111  210.975  210.911  210.892  210.722  210.927  211.318  211.437  210.466  211.256  211.024  211.062  210.860  211.073  211.206  211.506  211.936  211.651  211.794  212.209  211.573  211.634  211.553 
DATE 2017:063:17:10:32 obsn  40 az  75 el 42 freq_MHz  1420.4000 Tsys 192.762 Tant 20.553 vlsr   22.89 glat -31.232 glon 133.843 source Trigl 
Fstart 1419.397 fstop 1421.403 spacing 0.009375 bw    2.400 fbw    2.000 MHz nfreq 256 nsam 5242880 npoint 214 integ   473 sigma    0.092 bsw 0
Spectrum    433 integration periods
 215.418  214.761  214.321  213.888  213.909  213.797  214.190  213.973  214.305  214.401  214.666  214.357  214.653  214.480  214.489  214.218  214.170  214.239  214.065  214.410  213.876  213.783  213.812  214.425  213.864  213.571  213.676  213.664  213.368  213.282  213.159  213.485  213.444  213.439  213.133  213.530  213.513  213.103  212.952  213.168  213.286  213.027  213.058  213.369  213.788  213.121  213.154  213.106  213.495  213.321  213.604  212.957  213.165  212.863  212.773  212.586  212.613  213.103  213.027  212.446  212.743  212.915  212.789  226.529  216.564  375.337  215.185  212.807  212.448  211.856  211.786  211.816  211.843  211.730  211.962  211.701  212.142  212.048  212.613  211.901  212.212  212.282  212.324  212.505  212.523  212.496  212.518  212.825  212.893  213.001  213.455  214.364  214.310  215.671  218.370  221.474  224.065  226.358  228.580  229.503  227.086  221.947  218.836  217.384  216.856  215.667  214.904  214.536  214.637  214.260  214.028  214.129  214.451  213.802  213.797  213.830  213.507  213.792  213.744  213.448  213.427  213.599  213.430  213.205  213.226  213.732  212.775  212.720  212.839  213.063  211.827  211.826  214.101  211.014  211.825  211.070  211.286  210.961  211.301  211.180  211.675  211.265  211.399  211.006  211.407  211.366  211.953  211.714  211.342  211.470  210.617  211.505  211.509  211.666  211.749  211.861  211.811  211.624  211.802  212.004  212.138  211.852  211.824  211.751  211.870  211.695  211.691  211.356  211.759  211.470  211.241  211.246  211.146  211.047  211.032  211.290  211.536  210.771  210.864  210.799  211.021  211.032  210.808  210.848  211.022  211.093  210.872  210.921  211.022  211.635  211.080  211.058  210.941  210.884  210.847  210.673  210.900  211.337  211.387  210.417  211.248  210.978  211.020  210.820  211.060  211.184  211.500  211.895  211.585  211.758  212.192  211.526  211.598  211.491 
DATE 2017:063:17:10:45 obsn  41 az  75 el 42 freq_MHz  1420.4000 Tsys 192.762 Tant 20.581 vlsr   22.89 glat -31.232 glon 133.843 source Trigl 
Fstart 1419.397 fstop 1421.403 spacing 0.009375 bw    2.400 fbw    2.000 MHz nfreq 256 nsam 5242880 npoint 214 integ   484 sigma    0.091 bsw 0
Spectrum    443 integration periods
 215.401  214.730  214.336  213.873  213.875  213.782  214.164  213.948  214.274  214.376  214.673  214.317  214.633  214.441  214.491  214.233  214.125  214.237  214.055  214.380  213.853  213.771  213.824  214.430  213.844  213.527  213.672  213.648  213.332  213.260  213.120  213.498  213.410  213.419  213.114  213.521  213.522  213.054  212.934  213.151  213.280  213.013  213.043  213.349  213.790  213.111  213.121  213.097  213.475  213.317  213.573  212.922  213.135  212.852  212.766  212.557  212.585  213.116  212.985  212.443  212.730  212.901  212.769  226.444  216.532  374.011  215.163  212.787  212.434  211.863  211.799  211.810  211.842  211.700  211.907  211.674  212.129  212.046  212.654  211.888  212.220  212.273  212.313  212.501  212.492  212.461  212.492  212.807  212.866  212.975  213.430  214.408  214.300  215.633  218.340  221.416  224.048  226.294  228.539  229.470  227.082  221.936  218.816  217.360  216.841  215.627  214.885  214.532  214.608  214.231  213.981  214.103  214.460  213.786  213.771  213.805  213.466  213.794  213.702  213.410  213.416  213.596  213.417  213.190  213.211  213.759  212.760  212.706  212.796  213.050  211.796  211.816  214.088  210.994  211.872  211.042  211.278  210.952  211.281  211.158  211.667  211.219  211.420  210.979  211.382  211.334  212.000  211.734  211.312  211.427  210.572  211.463  211.460  211.645  211.717  211.805  211.772  211.605  211.740  211.991  212.114  211.842  211.789  211.732  211.832  211.673  211.660  211.341  211.784  211.441  211.200  211.207  211.109  211.031  211.018  211.280  211.538  210.725  210.831  210.765  211.022  211.009  210.746  210.828  210.979  211.093  210.843  210.886  211.027  211.648  211.060  211.042  210.928  210.865  210.813  210.626  210.868  211.312  211.381  210.404  211.237  210.938  210.996  210.789  211.034  211.157  211.508  211.864  211.552  211.708  212.193  211.487  211.568  211.457 
DATE 2017:063:17:10:58 obsn  42 az  75 el 42 freq_MHz  1420.4000 Tsys 192.762 Tant 20.721 vlsr   22.89 glat -31.232 glon 133.843 source Trigl 
Fstart 1419.397 fstop 1421.403 spacing 0.009375 bw    2.400 fbw    2.000 MHz nfreq 256 nsam 5242880 npoint 214 integ   495 sigma    0.089 bsw 0
Spectrum    453 integration periods
 215.371  214.711  214.339  213.839  213.832  213.725  214.119  213.922  214.232  214.361  214.700  214.279  214.595  214.410  214.474  214.204  214.101  214.225  214.044  214.351  213.844  213.781  213.796  214.463  213.824  213.480  213.663  213.643  213.303  213.224  213.072  213.468  213.401  213.408  213.086  213.511  213.546  213.058  212.915  213.137  213.270  213.027  213.032  213.325  213.769  213.077  213.081  213.074  213.495  213.268  213.544  212.914  213.126  212.824  212.737  212.546  212.545  213.155  212.956  212.424  212.702  212.871  212.759  226.406  216.480  372.739  215.142  212.774  212.373  211.872  211.811  211.827  211.790  211.682  211.899  211.640  212.094  212.034  212.625  211.886  212.179  212.234  212.307  212.501  212.485  212.450  212.449  212.819  212.831  212.981  213.403  214.456  214.289  215.614  218.312  221.379  224.009  226.251  228.504  229.448  227.105  221.946  218.788  217.350  216.854  215.594  214.890  214.520  214.573  214.220  213.969  214.098  214.501  213.758  213.732  213.803  213.450  213.767  213.661  213.408  213.420  213.604  213.424  213.161  213.183  213.763  212.721  212.705  212.782  213.031  211.765  211.790  214.068  210.994  211.891  211.011  211.273  210.938  211.283  211.161  211.643  211.186  211.404  210.959  211.363  211.301  212.023  211.704  211.296  211.379  210.604  211.431  211.446  211.635  211.715  211.809  211.772  211.557  211.714  211.985  212.074  211.803  211.755  211.731  211.832  211.662  211.628  211.302  211.810  211.395  211.186  211.204  211.097  210.980  210.997  211.252  211.574  210.705  210.821  210.733  211.012  210.984  210.713  210.815  210.926  211.084  210.829  210.861  210.996  211.643  211.055  211.027  210.920  210.847  210.762  210.601  210.841  211.333  211.402  210.360  211.208  210.914  210.952  210.766  211.021  211.133  211.512  211.840  211.517  211.681  212.202  211.463  211.532  211.422 
DATE 2017:063:17:11:11 obsn  43 az  75 el 42 freq_MHz  1420.4000 Tsys 192.762 Tant 21.008 vlsr   22.89 glat -31.232 glon 133.843 source Trigl 
Fstart 1419.397 fstop 1421.403 spacing 0.009375 bw    2.400 fbw    2.000 MHz nfreq 256 nsam 5242880 npoint 214 integ   506 sigma    0.089 bsw 0
Spectrum    463 integration periods
 215.346  214.673  214.365  213.841  213.810  213.726  214.092  213.925  214.226  214.340  214.720  214.283  214.578  214.400  214.488  214.177  214.098  214.220  214.043  214.343  213.816  213.756  213.781  214.488  213.812  213.474  213.665  213.615  213.278  213.219  213.051  213.471  213.373  213.428  213.057  213.496  213.565  213.076  212.929  213.124  213.257  213.033  213.013  213.313  213.811  213.076  213.088  213.063  213.494  213.289  213.576  212.888  213.124  212.790  212.738  212.564  212.540  213.198  212.930  212.405  212.690  212.865  212.751  226.360  216.458  371.636  215.160  212.742  212.350  211.854  211.870  211.819  211.797  211.674  211.893  211.628  212.090  212.004  212.664  211.861  212.158  212.204  212.292  212.491  212.450  212.432  212.431  212.792  212.805  212.962  213.390  214.493  214.267  215.603  218.298  221.367  223.986  226.228  228.497  229.458  227.143  221.939  218.777  217.335  216.839  215.602  214.874  214.514  214.589  214.194  213.968  214.073  214.522  213.742  213.685  213.804  213.432  213.741  213.661  213.406  213.419  213.623  213.419  213.137  213.181  213.811  212.718  212.679  212.773  213.027  211.763  211.757  214.080  210.974  211.931  211.019  211.268  210.923  211.275  211.133  211.605  211.152  211.412  210.941  211.332  211.284  212.029  211.666  211.290  211.381  210.584  211.409  211.401  211.605  211.683  211.798  211.767  211.567  211.713  211.976  212.034  211.784  211.764  211.721  211.807  211.643  211.614  211.272  211.832  211.375  211.149  211.179  211.039  210.942  210.979  211.226  211.590  210.703  210.819  210.704  210.985  210.980  210.670  210.763  210.903  211.066  210.839  210.851  210.990  211.668  211.025  211.010  210.882  210.808  210.756  210.569  210.823  211.340  211.431  210.324  211.197  210.880  210.935  210.733  210.993  211.118  211.500  211.828  211.488  211.624  212.183  211.428  211.477  211.408 
DATE 2017:063:17:11:24 obsn  44 az  75 el 42 freq_MHz  1420.4000 Tsys 192.762 Tant 20.678 vlsr   22.89 glat -31.232 glon 133.843 source Trigl 
Fstart 1419.397 fstop 1421.403 spacing 0.009375 bw    2.400 fbw    2.000 MHz nfreq 256 nsam 5242880 npoint 214 integ   517 sigma    0.088 bsw 0
Spectrum    473 integration periods
 215.302  214.650  214.383  213.834  213.769  213.727  214.092  213.925  214.213  214.328  214.737  214.276  214.567  214.410  214.515  214.145  214.090  214.219  214.046  214.334  213.826  213.715  213.772  214.530  213.799  213.474  213.655  213.611  213.268  213.219  213.057  213.472  213.366  213.383  213.034  213.455  213.587  213.065  212.926  213.118  213.233  213.010  213.004  213.283  213.863  213.079  213.094  213.046  213.482  213.289  213.579  212.850  213.075  212.767  212.712  212.556  212.541  213.227  212.918  212.421  212.664  212.846  212.716  226.306  216.468  370.582  215.161  212.738  212.333  211.834  211.863  211.799  211.808  211.662  211.878  211.615  212.099  211.992  212.678  211.853  212.139  212.211  212.272  212.481  212.438  212.425  212.427  212.783  212.808  212.951  213.390  214.504  214.266  215.579  218.282  221.328  223.995  226.205  228.506  229.450  227.161  221.929  218.769  217.332  216.854  215.601  214.870  214.524  214.582  214.175  213.954  214.058  214.542  213.708  213.684  213.801  213.415  213.746  213.656  213.377  213.431  213.634  213.405  213.136  213.136  213.841  212.704  212.673  212.750  213.001  211.731  211.774  214.100  210.968  211.937  210.992  211.246  210.933  211.297  211.135  211.603  211.157  211.394  210.950  211.330  211.276  212.021  211.634  211.255  211.376  210.599  211.418  211.409  211.576  211.663  211.776  211.753  211.542  211.670  212.008  212.001  211.779  211.766  211.709  211.789  211.641  211.609  211.262  211.844  211.343  211.149  211.149  211.014  210.927  210.950  211.224  211.592  210.687  210.785  210.683  210.971  210.953  210.642  210.732  210.895  211.063  210.821  210.830  210.940  211.677  210.985  210.996  210.850  210.781  210.736  210.542  210.794  211.365  211.443  210.307  211.173  210.862  210.904  210.712  210.972  211.085  211.481  211.815  211.469  211.595  212.181  211.425  211.459  211.370 
DATE 2017:063:17:11:37 obsn  45 az  75 el 42 freq_MHz  1420.4000 Tsys 192.762 Tant 20.376 vlsr   22.89 glat -31.232 glon 133.843 source Trigl 
Fstart 1419.397 fstop 1421.403 spacing 0.009375 bw    2.400 fbw    2.000 MHz nfreq 256 nsam 5242880 npoint 214 integ   528 sigma    0.087 bsw 0
Spectrum    483 integration periods
 215.294  214.634  214.401  213.835  213.779  213.722  214.084  213.911  214.207  214.330  214.773  214.278  214.563  214.408  214.524  214.146  214.059  214.197  214.050  214.325  213.826  213.705  213.770  214.558  213.807  213.467  213.630  213.618  213.276  213.205  213.041  213.487  213.342  213.399  213.052  213.449  213.602  213.077  212.920  213.125  213.217  213.003  212.991  213.292  213.870  213.093  213.087  213.070  213.487  213.301  213.561  212.863  213.054  212.765  212.717  212.552  212.519  213.223  212.924  212.419  212.668  212.856  212.711  226.283  216.461  369.535  215.156  212.730  212.333  211.840  211.799  211.785  211.802  211.633  211.872  211.590  212.094  211.975  212.709  211.846  212.137  212.235  212.283  212.487  212.451  212.417  212.457  212.811  212.824  212.945  213.387  214.531  214.258  215.590  218.255  221.335  223.990  226.192  228.509  229.471  227.173  221.934  218.772  217.343  216.861  215.595  214.866  214.504  214.568  214.172  213.943  214.067  214.547  213.721  213.670  213.807  213.399  213.732  213.630  213.387  213.416  213.656  213.406  213.110  213.121  213.866  212.691  212.670  212.754  213.012  211.735  211.769  214.129  210.965  211.956  210.988  211.255  210.918  211.301  211.138  211.594  211.156  211.394  210.939  211.309  211.286  212.060  211.647  211.259  211.337  210.598  211.386  211.377  211.555  211.624  211.765  211.721  211.520  211.678  212.016  211.995  211.785  211.765  211.694  211.767  211.619  211.588  211.254  211.886  211.326  211.136  211.130  211.000  210.930  210.934  211.231  211.596  210.677  210.784  210.671  210.971  210.911  210.645  210.715  210.887  211.051  210.817  210.791  210.914  211.689  210.951  210.967  210.849  210.762  210.711  210.519  210.753  211.360  211.458  210.305  211.140  210.815  210.899  210.686  210.963  211.068  211.484  211.780  211.447  211.566  212.192  211.408  211.442  211.375 
DATE 2017:063:17:11:50 obsn  46 az  75 el 42 freq_MHz  1420.4000 Tsys 192.762 Tant 20.597 vlsr   22.89 glat -31.232 glon 133.843 source Trigl 
Fstart 1419.397 fstop 1421.403 spacing 0.009375 bw    2.400 fbw    2.000 MHz nfreq 256 nsam 5242880 npoint 214 integ   538 sigma    0.086 bsw 0
Spectrum    493 integration periods
 215.287  214.591  214.404  213.820  213.768  213.694  214.062  213.906  214.178  214.293  214.784  214.261  214.536  214.385  214.546  214.139  214.062  214.195  214.044  214.317  213.811  213.710  213.744  214.581  213.799  213.443  213.607  213.622  213.271  213.173  213.042  213.501  213.343  213.399  213.044  213.443  213.629  213.052  212.928  213.130  213.211  212.997  212.984  213.291  213.870  213.091  213.082  213.061  213.496  213.283  213.560  212.834  213.027  212.766  212.706  212.544  212.508  213.243  212.916  212.416  212.668  212.856  212.702  226.245  216.451  368.524  215.162  212.724  212.323  211.806  211.853  211.802  211.799  211.620  211.875  211.563  212.103  211.982  212.725  211.841  212.106  212.238  212.307  212.510  212.443  212.395  212.451  212.805  212.812  212.926  213.347  214.548  214.267  215.562  218.226  221.326  223.971  226.184  228.495  229.461  227.190  221.927  218.771  217.347  216.864  215.588  214.855  214.498  214.571  214.151  213.959  214.070  214.571  213.700  213.662  213.809  213.387  213.737  213.642  213.401  213.376  213.651  213.389  213.111  213.126  213.871  212.666  212.660  212.756  212.995  211.728  211.763  214.155  210.971  211.984  210.970  211.231  210.904  211.263  211.130  211.558  211.126  211.374  210.924  211.307  211.253  212.054  211.614  211.255  211.320  210.676  211.375  211.362  211.528  211.600  211.749  211.717  211.495  211.678  212.004  211.942  211.735  211.752  211.698  211.756  211.584  211.579  211.220  211.894  211.309  211.134  211.085  211.000  210.931  210.916  211.202  211.601  210.646  210.781  210.646  210.955  210.908  210.631  210.674  210.880  211.037  210.788  210.779  210.918  211.725  210.944  210.946  210.838  210.749  210.695  210.509  210.731  211.358  211.458  210.298  211.093  210.806  210.877  210.660  210.942  211.040  211.507  211.779  211.421  211.542  212.203  211.407  211.431  211.353 
DATE 2017:063:17:12:04 obsn  47 az  75 el 42 freq_MHz  1420.4000 Tsys 192.762 Tant 20.875 vlsr   22.89 glat -31.232 glon 133.843 source Trigl 
Fstart 1419.397 fstop 1421.403 spacing 0.009375 bw    2.400 fbw    2.000 MHz nfreq 256 nsam 5242880 npoint 214 integ   549 sigma    0.085 bsw 0
Spectrum    503 integration periods
 215.279  214.565  214.425  213.795  213.746  213.666  214.054  213.906  214.171  214.282  214.782  214.230  214.524  214.379  214.564  214.135  214.042  214.142  214.015  214.297  213.803  213.689  213.745  214.611  213.768  213.435  213.599  213.625  213.259  213.164  213.023  213.503  213.310  213.376  213.021  213.429  213.656  213.036  212.924  213.133  213.188  212.988  212.978  213.260  213.880  213.091  213.080  213.033  213.495  213.257  213.547  212.845  213.031  212.750  212.692  212.535  212.503  213.264  212.926  212.381  212.636  212.843  212.682  226.180  216.432  367.513  215.149  212.733  212.301  211.742  211.824  211.780  211.800  211.609  211.864  211.565  212.089  211.951  212.749  211.817  212.091  212.219  212.294  212.524  212.429  212.377  212.414  212.799  212.806  212.926  213.339  214.550  214.238  215.569  218.218  221.299  223.953  226.168  228.475  229.462  227.212  221.916  218.754  217.337  216.876  215.574  214.845  214.475  214.558  214.138  213.959  214.051  214.604  213.691  213.639  213.795  213.362  213.753  213.647  213.391  213.376  213.645  213.389  213.087  213.123  213.882  212.659  212.643  212.728  212.960  211.684  211.747  214.148  210.954  211.986  210.948  211.214  210.898  211.232  211.106  211.545  211.089  211.366  210.900  211.294  211.216  212.086  211.593  211.239  211.320  210.731  211.365  211.358  211.507  211.570  211.732  211.692  211.491  211.666  211.999  211.925  211.684  211.729  211.721  211.739  211.573  211.568  211.218  211.925  211.278  211.123  211.069  210.981  210.905  210.890  211.174  211.606  210.604  210.768  210.629  210.918  210.901  210.606  210.653  210.855  211.048  210.783  210.722  210.907  211.754  210.935  210.909  210.837  210.733  210.668  210.491  210.721  211.369  211.452  210.276  211.095  210.788  210.843  210.640  210.945  211.009  211.525  211.756  211.421  211.529  212.219  211.348  211.399  211.324 
DATE 2017:063:17:12:17 obsn  48 az  75 el 42 freq_MHz  1420.4000 Tsys 192.762 Tant 21.085 vlsr   22.89 glat -31.232 glon 133.843 source Trigl 
Fstart 1419.397 fstop 1421.403 spacing 0.009375 bw    2.400 fbw    2.000 MHz nfreq 256 nsam 5242880 npoint 214 integ   560 sigma    0.084 bsw 0
Spectrum    513 integration periods
 215.274  214.558  214.443  213.798  213.730  213.674  214.046  213.909  214.163  214.276  214.834  214.240  214.506  214.386  214.587  214.133  214.032  214.119  213.993  214.296  213.785  213.669  213.742  214.621  213.748  213.444  213.593  213.608  213.266  213.147  213.014  213.509  213.290  213.386  213.025  213.403  213.690  213.037  212.928  213.108  213.173  212.978  212.969  213.230  213.892  213.109  213.089  213.017  213.499  213.268  213.533  212.831  213.040  212.744  212.684  212.537  212.508  213.280  212.940  212.370  212.613  212.860  212.673  226.127  216.402  366.611  215.138  212.701  212.277  211.737  211.828  211.792  211.812  211.598  211.865  211.562  212.095  211.953  212.778  211.826  212.074  212.228  212.299  212.524  212.441  212.360  212.397  212.790  212.774  212.919  213.336  214.567  214.220  215.575  218.218  221.307  223.922  226.161  228.469  229.479  227.233  221.915  218.756  217.316  216.867  215.557  214.829  214.460  214.569  214.138  213.950  214.044  214.644  213.704  213.627  213.774  213.373  213.767  213.661  213.400  213.373  213.659  213.389  213.087  213.120  213.892  212.672  212.631  212.741  212.930  211.692  211.730  214.118  210.949  211.988  210.922  211.228  210.885  211.241  211.069  211.561  211.067  211.374  210.875  211.287  211.181  212.094  211.583  211.230  211.306  210.750  211.382  211.360  211.511  211.557  211.702  211.698  211.495  211.649  212.010  211.917  211.681  211.726  211.718  211.736  211.540  211.551  211.215  211.948  211.272  211.116  211.059  210.974  210.883  210.858  211.166  211.609  210.583  210.751  210.629  210.906  210.910  210.597  210.629  210.848  211.061  210.766  210.695  210.900  211.765  210.940  210.900  210.817  210.732  210.656  210.489  210.722  211.397  211.462  210.264  211.097  210.760  210.831  210.629  210.918  210.990  211.528  211.749  211.419  211.508  212.217  211.324  211.360  211.294 
DATE 2017:063:17:12:30 obsn  49 az  75 el 42 freq_MHz  1420.4000 Tsys 192.762 Tant 21.476 vlsr   22.89 glat -31.232 glon 133.843 source Trigl 
Fstart 1419.397 fstop 1421.403 spacing 0.009375 bw    2.400 fbw    2.000 MHz nfreq 256 nsam 5242880 npoint 214 integ   571 sigma    0.083 bsw 0
Spectrum    523 integration periods
 215.264  214.558  214.459  213.796  213.713  213.659  214.035  213.904  214.152  214.258  214.883  214.242  214.501  214.382  214.586  214.125  214.038  214.109  213.982  214.288  213.771  213.672  213.727  214.635  213.750  213.437  213.564  213.599  213.252  213.134  213.016  213.531  213.269  213.357  213.014  213.406  213.696  213.052  212.939  213.098  213.163  212.984  212.966  213.209  213.917  213.089  213.104  212.989  213.479  213.250  213.543  212.829  213.051  212.755  212.659  212.539  212.508  213.310  212.937  212.360  212.594  212.833  212.668  226.128  216.388  365.718  215.133  212.681  212.277  211.718  211.935  211.814  211.810  211.608  211.841  211.563  212.085  211.923  212.808  211.839  212.049  212.235  212.309  212.558  212.435  212.349  212.380  212.761  212.749  212.915  213.351  214.611  214.235  215.563  218.208  221.284  223.900  226.162  228.476  229.476  227.270  221.908  218.759  217.303  216.890  215.545  214.823  214.474  214.542  214.126  213.950  214.049  214.684  213.691  213.623  213.761  213.358  213.781  213.651  213.396  213.378  213.652  213.388  213.097  213.093  213.905  212.686  212.616  212.737  212.936  211.673  211.737  214.115  210.955  212.007  210.926  211.203  210.871  211.242  211.067  211.571  211.051  211.375  210.853  211.271  211.162  212.128  211.575  211.234  211.299  210.794  211.377  211.351  211.506  211.567  211.672  211.682  211.489  211.638  212.008  211.887  211.683  211.709  211.685  211.728  211.522  211.519  211.209  211.962  211.247  211.108  211.067  210.950  210.864  210.834  211.153  211.625  210.584  210.714  210.599  210.895  210.898  210.611  210.621  210.822  211.071  210.757  210.683  210.858  211.773  210.920  210.876  210.792  210.714  210.638  210.486  210.725  211.399  211.486  210.255  211.085  210.751  210.809  210.592  210.886  210.951  211.557  211.757  211.405  211.489  212.243  211.297  211.370  211.257 
DATE 2017:063:17:12:43 obsn  50 az  75 el 42 freq_MHz  1420.4000 Tsys 192.762 Tant 21.269 vlsr   22.89 glat -31.232 glon 133.843 source Trigl 
Fstart 1419.397 fstop 1421.403 spacing 0.009375 bw    2.400 fbw    2.000 MHz nfreq 256 nsam 5242880 npoint 214 integ   582 sigma    0.083 bsw 0
Spectrum    533 integration periods
 215.278  214.527  214.465  213.789  213.706  213.663  214.033  213.896  214.161  214.265  214.917  214.247  214.501  214.396  214.590  214.111  214.040  214.108  213.986  214.305  213.765  213.661  213.739  214.648  213.741  213.450  213.546  213.579  213.241  213.135  213.038  213.538  213.268  213.353  213.000  213.424  213.694  213.057  212.928  213.107  213.163  212.987  212.955  213.190  213.937  213.085  213.104  212.997  213.508  213.226  213.559  212.834  213.057  212.757  212.651  212.539  212.489  213.330  212.941  212.350  212.584  212.857  212.628  226.102  216.386  364.938  215.125  212.680  212.275  211.705  211.962  211.811  211.794  211.618  211.828  211.546  212.095  211.910  212.848  211.846  212.052  212.242  212.332  212.576  212.426  212.354  212.389  212.779  212.750  212.923  213.365  214.652  214.248  215.583  218.203  221.271  223.890  226.160  228.490  229.499  227.309  221.919  218.748  217.289  216.919  215.564  214.829  214.474  214.527  214.111  213.946  214.043  214.702  213.680  213.617  213.777  213.365  213.776  213.653  213.395  213.362  213.676  213.395  213.080  213.072  213.933  212.674  212.625  212.753  212.924  211.678  211.737  214.114  210.923  212.041  210.919  211.210  210.880  211.223  211.072  211.534  211.043  211.383  210.842  211.253  211.168  212.142  211.574  211.227  211.315  210.819  211.380  211.333  211.514  211.571  211.660  211.686  211.465  211.637  212.010  211.872  211.691  211.700  211.694  211.757  211.520  211.524  211.208  212.003  211.226  211.090  211.039  210.938  210.839  210.834  211.139  211.639  210.577  210.708  210.595  210.886  210.875  210.575  210.593  210.803  211.048  210.734  210.657  210.848  211.785  210.887  210.853  210.772  210.689  210.623  210.473  210.688  211.425  211.502  210.246  211.086  210.753  210.804  210.583  210.850  210.929  211.564  211.749  211.407  211.490  212.242  211.300  211.371  211.251 
DATE 2017:063:17:12:56 obsn  51 az  75 el 42 freq_MHz  1420.4000 Tsys 192.762 Tant 21.815 vlsr   22.89 glat -31.232 glon 133.843 source Trigl 
Fstart 1419.397 fstop 1421.403 spacing 0.009375 bw    2.400 fbw    2.000 MHz nfreq 256 nsam 5242880 npoint 214 integ   593 sigma    0.082 bsw 0
Spectrum    543 integration periods
 215.269  214.507  214.479  213.800  213.710  213.676  214.027  213.896  214.164  214.274  214.951  214.232  214.511  214.420  214.600  214.105  214.051  214.108  213.976  214.299  213.745  213.668  213.760  214.680  213.734  213.439  213.529  213.579  213.250  213.112  213.042  213.569  213.262  213.378  213.011  213.429  213.711  213.066  212.921  213.107  213.187  212.981  212.969  213.172  213.962  213.097  213.102  212.991  213.516  213.237  213.557  212.846  213.068  212.748  212.643  212.535  212.503  213.364  212.939  212.341  212.568  212.861  212.629  226.078  216.374  364.151  215.120  212.674  212.282  211.732  212.073  211.802  211.786  211.639  211.838  211.559  212.091  211.902  212.861  211.858  212.052  212.242  212.328  212.585  212.438  212.349  212.375  212.773  212.745  212.902  213.361  214.673  214.243  215.593  218.212  221.283  223.901  226.153  228.485  229.514  227.310  221.915  218.754  217.299  216.958  215.581  214.820  214.473  214.526  214.126  213.949  214.065  214.737  213.686  213.626  213.782  213.388  213.781  213.639  213.419  213.354  213.686  213.412  213.071  213.047  213.960  212.669  212.648  212.758  212.930  211.671  211.748  214.103  210.921  212.072  210.945  211.202  210.865  211.220  211.060  211.513  211.027  211.376  210.832  211.230  211.178  212.187  211.582  211.220  211.312  210.844  211.364  211.341  211.494  211.550  211.647  211.667  211.451  211.631  212.005  211.849  211.686  211.694  211.694  211.748  211.506  211.514  211.203  212.041  211.230  211.076  211.021  210.899  210.814  210.835  211.142  211.641  210.586  210.712  210.587  210.898  210.882  210.566  210.587  210.774  211.044  210.710  210.642  210.841  211.797  210.870  210.874  210.764  210.687  210.597  210.464  210.688  211.445  211.533  210.230  211.090  210.764  210.812  210.564  210.832  210.910  211.571  211.755  211.386  211.470  212.241  211.283  211.352  211.249 
DATE 2017:063:17:13:09 obsn  52 az  75 el 42 freq_MHz  1420.4000 Tsys 192.762 Tant 21.196 vlsr   22.89 glat -31.232 glon 133.843 source Trigl 
Fstart 1419.397 fstop 1421.403 spacing 0.009375 bw    2.400 fbw    2.000 MHz nfreq 256 nsam 5242880 npoint 214 integ   604 sigma    0.081 bsw 0
Spectrum    553 integration periods
 215.263  214.504  214.514  213.807  213.723  213.681  214.019  213.868  214.164  214.279  214.972  214.238  214.520  214.421  214.632  214.109  214.058  214.097  213.980  214.290  213.737  213.652  213.768  214.717  213.733  213.422  213.522  213.608  213.261  213.105  213.032  213.555  213.235  213.378  213.010  213.419  213.749  213.074  212.933  213.125  213.182  212.992  212.964  213.181  213.980  213.092  213.108  213.016  213.536  213.239  213.568  212.866  213.089  212.751  212.642  212.557  212.511  213.410  212.949  212.340  212.579  212.885  212.633  226.036  216.356  363.367  215.117  212.673  212.280  211.721  212.082  211.811  211.771  211.636  211.846  211.579  212.099  211.914  212.888  211.884  212.059  212.238  212.349  212.607  212.436  212.347  212.382  212.801  212.754  212.911  213.362  214.706  214.265  215.598  218.215  221.281  223.909  226.182  228.517  229.508  227.317  221.911  218.762  217.308  216.965  215.580  214.814  214.487  214.522  214.129  213.949  214.072  214.759  213.690  213.618  213.806  213.414  213.782  213.643  213.433  213.350  213.703  213.415  213.062  213.062  213.990  212.656  212.644  212.753  212.935  211.671  211.756  214.116  210.943  212.103  210.935  211.211  210.875  211.237  211.050  211.521  210.999  211.386  210.837  211.220  211.168  212.214  211.593  211.251  211.357  210.825  211.348  211.360  211.487  211.566  211.625  211.654  211.436  211.629  212.013  211.863  211.698  211.695  211.707  211.757  211.486  211.508  211.197  212.059  211.217  211.042  211.033  210.916  210.804  210.839  211.160  211.663  210.586  210.706  210.593  210.909  210.873  210.573  210.590  210.754  211.043  210.706  210.606  210.807  211.788  210.872  210.874  210.755  210.669  210.589  210.446  210.680  211.473  211.571  210.232  211.095  210.784  210.786  210.554  210.819  210.896  211.568  211.745  211.384  211.459  212.233  211.257  211.326  211.228 
DATE 2017:063:17:13:22 obsn  53 az  75 el 42 freq_MHz  1420.4000 Tsys 192.762 Tant 20.877 vlsr   22.89 glat -31.232 glon 133.843 source Trigl 
Fstart 1419.397 fstop 1421.403 spacing 0.009375 bw    2.400 fbw    2.000 MHz nfreq 256 nsam 5242880 npoint 214 integ   615 sigma    0.080 bsw 0
Spectrum    563 integration periods
 215.250  214.486  214.542  213.773  213.702  213.677  214.032  213.885  214.165  214.275  215.026  214.240  214.521  214.421  214.639  214.127  214.074  214.096  213.986  214.322  213.743  213.652  213.763  214.731  213.717  213.421  213.541  213.628  213.250  213.097  213.040  213.562  213.238  213.368  212.997  213.419  213.766  213.067  212.946  213.095  213.184  213.001  212.966  213.182  214.010  213.081  213.101  212.995  213.566  213.244  213.570  212.862  213.091  212.793  212.652  212.541  212.501  213.451  212.960  212.346  212.594  212.899  212.630  226.022  216.364  362.685  215.125  212.683  212.274  211.741  212.201  211.813  211.757  211.637  211.850  211.602  212.090  211.918  212.903  211.888  212.053  212.260  212.351  212.618  212.431  212.342  212.380  212.806  212.801  212.926  213.358  214.733  214.262  215.601  218.212  221.288  223.921  226.196  228.523  229.509  227.375  221.895  218.759  217.345  216.967  215.570  214.821  214.488  214.525  214.138  213.965  214.089  214.790  213.686  213.622  213.839  213.405  213.796  213.646  213.438  213.363  213.735  213.419  213.073  213.067  214.038  212.661  212.629  212.727  212.934  211.662  211.755  214.130  210.923  212.120  210.938  211.215  210.890  211.237  211.048  211.520  211.005  211.412  210.836  211.225  211.156  212.238  211.582  211.240  211.389  210.777  211.335  211.363  211.522  211.560  211.618  211.639  211.428  211.647  212.018  211.847  211.703  211.676  211.719  211.751  211.490  211.511  211.199  212.079  211.229  211.042  211.031  210.906  210.788  210.823  211.167  211.665  210.596  210.695  210.580  210.936  210.902  210.566  210.596  210.738  211.045  210.691  210.624  210.790  211.802  210.861  210.849  210.748  210.648  210.584  210.416  210.673  211.476  211.601  210.246  211.065  210.777  210.781  210.536  210.817  210.892  211.578  211.744  211.381  211.446  212.256  211.237  211.306  211.222 
DATE 2017:063:17:13:35 obsn  54 az  75 el 42 freq_MHz  1420.4000 Tsys 192.762 Tant 21.220 vlsr   22.89 glat -31.232 glon 133.843 source Trigl 
Fstart 1419.397 fstop 1421.403 spacing 0.009375 bw    2.400 fbw    2.000 MHz nfreq 256 nsam 5242880 npoint 214 integ   626 sigma    0.080 bsw 0
Spectrum    573 integration periods
 215.261  214.487  214.549  213.776  213.702  213.664  214.016  213.882  214.144  214.263  215.032  214.229  214.515  214.423  214.669  214.124  214.057  214.100  213.975  214.320  213.742  213.667  213.754  214.726  213.692  213.424  213.552  213.628  213.224  213.099  213.044  213.570  213.229  213.362  212.997  213.442  213.793  213.056  212.939  213.085  213.161  212.988  212.958  213.162  214.016  213.085  213.098  212.983  213.572  213.249  213.566  212.859  213.078  212.809  212.636  212.537  212.497  213.478  212.963  212.351  212.578  212.897  212.626  225.996  216.354  362.010  215.138  212.688  212.266  211.749  212.228  211.814  211.746  211.632  211.854  211.614  212.068  211.913  212.899  211.903  212.041  212.254  212.345  212.640  212.441  212.343  212.378  212.812  212.776  212.904  213.325  214.765  214.252  215.587  218.200  221.296  223.907  226.165  228.515  229.506  227.386  221.896  218.755  217.335  216.972  215.557  214.826  214.488  214.519  214.132  213.953  214.095  214.817  213.690  213.618  213.823  213.392  213.809  213.648  213.428  213.363  213.752  213.403  213.063  213.061  214.053  212.640  212.610  212.720  212.948  211.664  211.757  214.144  210.934  212.158  210.934  211.196  210.881  211.237  211.039  211.510  210.985  211.431  210.838  211.230  211.146  212.258  211.579  211.225  211.411  210.796  211.333  211.336  211.512  211.550  211.591  211.629  211.415  211.631  212.018  211.843  211.689  211.662  211.733  211.756  211.480  211.510  211.195  212.125  211.235  211.042  211.010  210.902  210.787  210.799  211.149  211.685  210.579  210.678  210.567  210.924  210.891  210.555  210.575  210.724  211.046  210.681  210.603  210.767  211.834  210.845  210.831  210.736  210.631  210.572  210.416  210.676  211.477  211.624  210.268  211.061  210.770  210.781  210.539  210.813  210.891  211.570  211.715  211.340  211.438  212.266  211.239  211.294  211.189 
DATE 2017:063:17:13:48 obsn  55 az  75 el 42 freq_MHz  1420.4000 Tsys 192.762 Tant 21.542 vlsr   22.89 glat -31.232 glon 133.843 source Trigl 
Fstart 1419.397 fstop 1421.403 spacing 0.009375 bw    2.400 fbw    2.000 MHz nfreq 256 nsam 5242880 npoint 214 integ   637 sigma    0.079 bsw 0
Spectrum    583 integration periods
 215.272  214.481  214.571  213.774  213.726  213.668  213.986  213.876  214.128  214.279  215.044  214.231  214.512  214.424  214.668  214.132  214.068  214.104  214.000  214.308  213.759  213.671  213.767  214.755  213.688  213.404  213.550  213.647  213.204  213.089  213.021  213.590  213.232  213.357  212.998  213.440  213.813  213.065  212.930  213.075  213.165  212.991  212.961  213.171  214.036  213.077  213.090  212.996  213.576  213.250  213.567  212.863  213.056  212.813  212.615  212.527  212.502  213.495  212.955  212.349  212.571  212.906  212.608  225.935  216.333  361.304  215.141  212.679  212.250  211.734  212.135  211.798  211.737  211.632  211.866  211.598  212.055  211.900  212.933  211.907  212.029  212.261  212.358  212.662  212.435  212.346  212.381  212.808  212.789  212.895  213.315  214.798  214.279  215.581  218.187  221.276  223.893  226.173  228.522  229.498  227.393  221.886  218.766  217.333  216.974  215.556  214.806  214.475  214.540  214.142  213.946  214.093  214.850  213.676  213.616  213.817  213.397  213.814  213.667  213.420  213.358  213.769  213.400  213.068  213.097  214.069  212.651  212.600  212.701  212.933  211.661  211.755  214.133  210.930  212.178  210.943  211.178  210.864  211.239  211.049  211.492  210.987  211.440  210.836  211.215  211.149  212.262  211.575  211.216  211.428  210.869  211.313  211.327  211.507  211.555  211.615  211.629  211.426  211.642  212.013  211.813  211.676  211.646  211.749  211.752  211.481  211.496  211.206  212.152  211.243  211.041  211.012  210.905  210.788  210.810  211.148  211.699  210.568  210.656  210.556  210.916  210.884  210.559  210.567  210.720  211.040  210.678  210.592  210.757  211.842  210.853  210.827  210.720  210.629  210.577  210.403  210.669  211.498  211.647  210.237  211.044  210.768  210.784  210.539  210.778  210.885  211.574  211.691  211.335  211.418  212.295  211.235  211.297  211.196 
DATE 2017:063:17:14:02 obsn  56 az  75 el 42 freq_MHz  1420.4000 Tsys 192.762 Tant 21.902 vlsr   22.89 glat -31.232 glon 133.843 source Trigl 
Fstart 1419.397 fstop 1421.403 spacing 0.009375 bw    2.400 fbw    2.000 MHz nfreq 256 nsam 5242880 npoint 214 integ   648 sigma    0.078 bsw 0
Spectrum    593 integration periods
 215.255  214.491  214.597  213.773  213.728  213.691  213.964  213.876  214.130  214.286  215.054  214.238  214.499  214.412  214.659  214.136  214.058  214.081  213.991  214.309  213.769  213.680  213.749  214.771  213.687  213.400  213.551  213.658  213.223  213.092  213.028  213.594  213.226  213.353  212.990  213.435  213.843  213.060  212.937  213.057  213.157  212.982  212.971  213.160  214.043  213.066  213.085  212.996  213.579  213.227  213.564  212.862  213.064  212.810  212.603  212.523  212.512  213.518  212.941  212.349  212.559  212.907  212.611  225.908  216.321  360.604  215.149  212.675  212.242  211.722  212.160  211.799  211.721  211.648  211.862  211.621  212.060  211.895  212.962  211.915  212.034  212.229  212.360  212.674  212.425  212.358  212.378  212.800  212.801  212.886  213.333  214.831  214.261  215.592  218.186  221.282  223.895  226.160  228.513  229.484  227.417  221.861  218.751  217.334  216.990  215.568  214.802  214.459  214.523  214.149  213.938  214.094  214.870  213.668  213.630  213.809  213.384  213.818  213.687  213.423  213.352  213.783  213.398  213.055  213.086  214.097  212.667  212.587  212.690  212.928  211.650  211.751  214.139  210.913  212.198  210.926  211.164  210.851  211.230  211.051  211.456  210.990  211.439  210.820  211.203  211.122  212.265  211.567  211.216  211.426  210.856  211.308  211.313  211.506  211.536  211.583  211.605  211.417  211.628  212.016  211.810  211.677  211.656  211.763  211.743  211.472  211.486  211.198  212.180  211.209  211.045  211.005  210.903  210.763  210.797  211.158  211.697  210.564  210.644  210.553  210.924  210.877  210.552  210.566  210.725  211.044  210.671  210.578  210.725  211.854  210.863  210.820  210.725  210.608  210.568  210.396  210.651  211.504  211.664  210.226  211.035  210.752  210.767  210.545  210.783  210.898  211.597  211.674  211.321  211.420  212.315  211.242  211.293  211.191 
DATE 2017:063:17:14:15 obsn  57 az  75 el 42 freq_MHz  1420.4000 Tsys 192.762 Tant 21.603 vlsr   22.89 glat -31.232 glon 133.843 source Trigl 
Fstart 1419.397 fstop 1421.403 spacing 0.009375 bw    2.400 fbw    2.000 MHz nfreq 256 nsam 5242880 npoint 214 integ   659 sigma    0.078 bsw 0
Spectrum    603 integration periods
 215.247  214.494  214.629  213.775  213.736  213.694  213.973  213.875  214.117  214.290  215.081  214.245  214.501  214.425  214.657  214.117  214.062  214.078  214.001  214.294  213.775  213.690  213.743  214.788  213.670  213.410  213.553  213.652  213.235  213.080  213.023  213.610  213.214  213.340  212.978  213.442  213.864  213.081  212.927  213.053  213.147  212.981  212.968  213.172  214.058  213.056  213.080  212.995  213.589  213.224  213.560  212.854  213.073  212.821  212.621  212.503  212.533  213.528  212.934  212.344  212.556  212.922  212.616  225.916  216.317  359.923  215.149  212.671  212.247  211.704  212.060  211.782  211.726  211.656  211.864  211.612  212.056  211.893  212.990  211.914  212.020  212.243  212.359  212.675  212.420  212.354  212.390  212.789  212.799  212.903  213.332  214.856  214.254  215.594  218.194  221.291  223.903  226.182  228.524  229.491  227.445  221.873  218.753  217.352  217.014  215.583  214.818  214.458  214.508  214.152  213.956  214.099  214.908  213.662  213.609  213.804  213.407  213.793  213.691  213.419  213.359  213.804  213.413  213.072  213.087  214.123  212.653  212.590  212.710  212.919  211.650  211.758  214.153  210.888  212.221  210.947  211.149  210.840  211.254  211.037  211.454  210.987  211.453  210.818  211.211  211.144  212.284  211.577  211.219  211.424  210.803  211.308  211.326  211.499  211.530  211.589  211.608  211.399  211.641  212.017  211.801  211.672  211.641  211.766  211.712  211.455  211.477  211.207  212.182  211.197  211.024  211.009  210.883  210.753  210.772  211.150  211.702  210.581  210.654  210.541  210.924  210.887  210.544  210.558  210.712  211.038  210.657  210.565  210.719  211.853  210.846  210.817  210.734  210.595  210.562  210.386  210.641  211.507  211.669  210.223  211.024  210.744  210.779  210.536  210.778  210.901  211.595  211.668  211.307  211.417  212.342  211.226  211.271  211.176 
DATE 2017:063:17:14:28 obsn  58 az  75 el 42 freq_MHz  1420.4000 Tsys 192.762 Tant 21.540 vlsr   22.89 glat -31.232 glon 133.843 source Trigl 
Fstart 1419.397 fstop 1421.403 spacing 0.009375 bw    2.400 fbw    2.000 MHz nfreq 256 nsam 5242880 npoint 214 integ   670 sigma    0.077 bsw 0
Spectrum    613 integration periods
 215.258  214.475  214.652  213.764  213.743  213.690  213.973  213.875  214.102  214.274  215.106  214.249  214.507  214.404  214.676  214.108  214.058  214.074  213.999  214.303  213.784  213.714  213.741  214.789  213.678  213.411  213.568  213.650  213.244  213.069  213.016  213.619  213.216  213.324  212.970  213.428  213.891  213.064  212.922  213.065  213.136  212.976  212.976  213.172  214.077  213.064  213.083  212.989  213.608  213.249  213.559  212.858  213.052  212.843  212.615  212.509  212.534  213.579  212.933  212.326  212.567  212.916  212.623  225.889  216.310  359.249  215.159  212.688  212.243  211.700  212.058  211.780  211.717  211.666  211.861  211.624  212.044  211.886  213.014  211.917  212.014  212.247  212.363  212.681  212.423  212.342  212.377  212.797  212.804  212.891  213.329  214.876  214.256  215.601  218.195  221.304  223.911  226.187  228.546  229.485  227.439  221.871  218.736  217.331  217.028  215.574  214.810  214.454  214.502  214.169  213.956  214.092  214.946  213.666  213.619  213.818  213.412  213.791  213.688  213.413  213.347  213.798  213.409  213.079  213.098  214.138  212.664  212.578  212.702  212.919  211.654  211.772  214.146  210.880  212.239  210.932  211.139  210.820  211.242  211.026  211.456  210.990  211.454  210.827  211.195  211.158  212.309  211.573  211.214  211.417  210.754  211.311  211.328  211.496  211.533  211.586  211.615  211.411  211.619  212.016  211.795  211.663  211.627  211.788  211.721  211.462  211.486  211.197  212.187  211.179  211.015  211.010  210.878  210.746  210.770  211.172  211.707  210.586  210.652  210.542  210.936  210.894  210.537  210.548  210.712  211.040  210.642  210.558  210.711  211.830  210.825  210.815  210.747  210.575  210.554  210.355  210.643  211.510  211.677  210.234  210.999  210.733  210.767  210.518  210.771  210.901  211.591  211.660  211.287  211.399  212.356  211.223  211.243  211.159 
DATE 2017:063:17:14:41 obsn  59 az  75 el 42 freq_MHz  1420.4000 Tsys 192.762 Tant 20.941 vlsr   22.89 glat -31.232 glon 133.843 source Trigl 
Fstart 1419.397 fstop 1421.403 spacing 0.009375 bw    2.400 fbw    2.000 MHz nfreq 256 nsam 5242880 npoint 214 integ   680 sigma    0.076 bsw 0
Spectrum    623 integration periods
 215.252  214.463  214.652  213.769  213.750  213.682  213.950  213.878  214.100  214.275  215.117  214.266  214.511  214.401  214.673  214.109  214.066  214.073  213.977  214.315  213.786  213.721  213.747  214.835  213.684  213.426  213.584  213.654  213.225  213.060  213.041  213.629  213.233  213.326  212.968  213.424  213.927  213.077  212.916  213.090  213.150  212.992  212.979  213.183  214.090  213.053  213.079  212.993  213.598  213.255  213.538  212.868  213.069  212.843  212.615  212.504  212.541  213.590  212.938  212.330  212.565  212.935  212.620  225.851  216.275  358.557  215.166  212.691  212.241  211.662  212.093  211.804  211.723  211.668  211.847  211.623  212.039  211.876  213.021  211.924  212.022  212.260  212.367  212.686  212.406  212.342  212.370  212.808  212.818  212.894  213.343  214.919  214.283  215.601  218.202  221.314  223.923  226.203  228.555  229.503  227.471  221.866  218.750  217.325  217.037  215.572  214.821  214.450  214.501  214.173  213.965  214.105  214.972  213.664  213.605  213.816  213.409  213.785  213.693  213.413  213.332  213.805  213.400  213.066  213.087  214.152  212.655  212.580  212.696  212.917  211.649  211.749  214.162  210.890  212.255  210.945  211.124  210.826  211.247  211.021  211.450  210.995  211.461  210.817  211.191  211.163  212.324  211.592  211.213  211.411  210.707  211.306  211.337  211.495  211.515  211.560  211.616  211.411  211.601  212.020  211.784  211.650  211.630  211.794  211.720  211.474  211.485  211.196  212.206  211.162  211.012  211.009  210.876  210.734  210.765  211.178  211.731  210.592  210.645  210.546  210.937  210.885  210.520  210.550  210.721  211.052  210.637  210.541  210.709  211.855  210.815  210.802  210.739  210.580  210.530  210.352  210.623  211.500  211.673  210.222  210.992  210.728  210.782  210.526  210.756  210.901  211.575  211.673  211.294  211.384  212.374  211.233  211.224  211.154 
DATE 2017:063:17:14:54 obsn  60 az  75 el 42 freq_MHz  1420.4000 Tsys 192.762 Tant 21.238 vlsr   22.89 glat -31.232 glon 133.843 source Trigl 
Fstart 1419.397 fstop 1421.403 spacing 0.009375 bw    2.400 fbw    2.000 MHz nfreq 256 nsam 5242880 npoint 214 integ   691 sigma    0.076 bsw 0
Spectrum    633 integration periods
 215.261  214.455  214.660  213.776  213.738  213.681  213.961  213.876  214.086  214.258  215.132  214.260  214.509  214.390  214.681  214.122  214.059  214.068  213.985  214.311  213.774  213.720  213.717  214.843  213.675  213.405  213.576  213.648  213.189  213.062  213.034  213.619  213.215  213.331  212.975  213.393  213.947  213.082  212.925  213.090  213.159  212.987  212.964  213.179  214.096  213.053  213.074  212.997  213.585  213.242  213.532  212.850  213.074  212.850  212.623  212.513  212.530  213.608  212.925  212.329  212.545  212.935  212.600  225.804  216.259  357.930  215.177  212.673  212.236  211.643  212.048  211.805  211.712  211.657  211.836  211.639  212.023  211.906  213.033  211.922  212.024  212.270  212.374  212.711  212.418  212.353  212.362  212.806  212.822  212.884  213.346  214.941  214.281  215.614  218.202  221.334  223.932  226.195  228.560  229.487  227.483  221.858  218.736  217.310  217.056  215.572  214.822  214.454  214.508  214.159  213.936  214.112  214.993  213.647  213.599  213.807  213.410  213.781  213.684  213.414  213.328  213.797  213.389  213.054  213.094  214.144  212.649  212.578  212.691  212.902  211.639  211.745  214.140  210.869  212.257  210.942  211.097  210.823  211.247  211.021  211.447  210.985  211.467  210.815  211.183  211.177  212.346  211.585  211.206  211.412  210.765  211.291  211.345  211.500  211.501  211.569  211.613  211.399  211.603  212.029  211.783  211.642  211.614  211.808  211.723  211.464  211.479  211.194  212.227  211.152  211.014  211.008  210.868  210.724  210.731  211.177  211.734  210.572  210.636  210.532  210.947  210.889  210.535  210.536  210.697  211.052  210.620  210.547  210.699  211.877  210.801  210.789  210.737  210.574  210.534  210.341  210.609  211.512  211.675  210.218  211.002  210.719  210.774  210.518  210.733  210.891  211.570  211.677  211.280  211.384  212.376  211.204  211.222  211.145 
DATE 2017:063:17:15:07 obsn  61 az  75 el 42 freq_MHz  1420.4000 Tsys 192.762 Tant 20.991 vlsr   22.89 glat -31.232 glon 133.843 source Trigl 
Fstart 1419.397 fstop 1421.403 spacing 0.009375 bw    2.400 fbw    2.000 MHz nfreq 256 nsam 5242880 npoint 214 integ   702 sigma    0.075 bsw 0
Spectrum    643 integration periods
 215.250  214.462  214.670  213.766  213.745  213.676  213.958  213.866  214.076  214.269  215.145  214.238  214.498  214.374  214.685  214.111  214.046  214.067  213.967  214.292  213.769  213.719  213.713  214.866  213.671  213.387  213.563  213.629  213.197  213.062  213.025  213.601  213.218  213.320  212.977  213.380  213.962  213.077  212.914  213.100  213.151  212.972  212.971  213.163  214.117  213.061  213.083  213.004  213.591  213.242  213.524  212.841  213.074  212.844  212.627  212.521  212.531  213.629  212.918  212.326  212.530  212.937  212.599  225.775  216.241  357.379  215.175  212.654  212.214  211.629  211.975  211.805  211.710  211.635  211.846  211.641  212.011  211.894  213.018  211.928  212.014  212.275  212.379  212.723  212.422  212.345  212.359  212.791  212.807  212.888  213.320  214.978  214.257  215.615  218.233  221.339  223.946  226.210  228.564  229.494  227.485  221.852  218.734  217.293  217.080  215.577  214.829  214.441  214.514  214.161  213.929  214.101  215.014  213.639  213.605  213.784  213.420  213.776  213.674  213.419  213.319  213.808  213.382  213.048  213.084  214.146  212.630  212.559  212.673  212.908  211.633  211.739  214.145  210.867  212.271  210.950  211.102  210.795  211.249  211.003  211.427  210.980  211.472  210.799  211.173  211.157  212.347  211.575  211.195  211.418  210.739  211.278  211.341  211.491  211.491  211.579  211.602  211.398  211.589  212.044  211.772  211.632  211.599  211.813  211.707  211.452  211.443  211.182  212.230  211.131  211.008  210.989  210.837  210.707  210.734  211.178  211.766  210.589  210.630  210.524  210.927  210.877  210.526  210.520  210.686  211.068  210.614  210.536  210.688  211.882  210.777  210.776  210.713  210.551  210.520  210.331  210.596  211.519  211.692  210.217  210.980  210.688  210.767  210.509  210.714  210.876  211.571  211.668  211.268  211.359  212.382  211.202  211.212  211.125 
DATE 2017:063:17:15:28 obsn  62 az  75 el 43 freq_MHz  1420.4000 Tsys 192.762 Tant 21.579 vlsr   22.89 glat -31.232 glon 133.843 source Trigl 
Fstart 1419.397 fstop 1421.403 spacing 0.009375 bw    2.400 fbw    2.000 MHz nfreq 256 nsam 5242880 npoint 214 integ   713 sigma    0.075 bsw 0
Spectrum    653 integration periods
 215.253  214.467  214.682  213.780  213.747  213.662  213.963  213.858  214.072  214.263  215.174  214.258  214.505  214.385  214.710  214.121  214.044  214.089  213.986  214.297  213.772  213.726  213.721  214.891  213.683  213.384  213.567  213.647  213.200  213.077  213.039  213.607  213.207  213.329  212.980  213.379  214.001  213.070  212.902  213.095  213.163  212.979  212.987  213.171  214.143  213.061  213.098  213.003  213.601  213.261  213.523  212.864  213.067  212.843  212.625  212.532  212.532  213.649  212.950  212.314  212.529  212.959  212.602  225.747  216.234  356.803  215.191  212.637  212.218  211.623  211.952  211.823  211.700  211.657  211.853  211.653  212.002  211.899  213.061  211.943  212.004  212.277  212.403  212.732  212.430  212.348  212.362  212.794  212.825  212.888  213.312  215.025  214.268  215.651  218.227  221.342  223.957  226.222  228.580  229.493  227.496  221.853  218.743  217.285  217.101  215.587  214.810  214.438  214.534  214.173  213.924  214.106  215.051  213.653  213.599  213.772  213.415  213.769  213.669  213.427  213.337  213.820  213.382  213.056  213.090  214.175  212.643  212.559  212.671  212.900  211.622  211.743  214.164  210.876  212.304  210.935  211.099  210.800  211.266  211.004  211.428  210.970  211.490  210.787  211.171  211.164  212.363  211.567  211.202  211.409  210.704  211.285  211.331  211.507  211.496  211.583  211.600  211.409  211.601  212.054  211.774  211.618  211.587  211.818  211.695  211.448  211.439  211.188  212.265  211.140  211.005  210.990  210.831  210.690  210.729  211.176  211.794  210.590  210.613  210.532  210.903  210.891  210.525  210.517  210.668  211.073  210.630  210.551  210.707  211.914  210.768  210.781  210.708  210.527  210.524  210.336  210.581  211.525  211.715  210.227  210.972  210.687  210.775  210.502  210.692  210.866  211.598  211.672  211.255  211.347  212.388  211.190  211.202  211.124 
DATE 2017:063:17:15:42 obsn  63 az  75 el 43 freq_MHz  1420.4000 Tsys 192.762 Tant 21.402 vlsr   22.89 glat -31.232 glon 133.843 source Trigl 
Fstart 1419.397 fstop 1421.403 spacing 0.009375 bw    2.400 fbw    2.000 MHz nfreq 256 nsam 5242880 npoint 214 integ   724 sigma    0.074 bsw 0
Spectrum    663 integration periods
 215.248  214.484  214.727  213.790  213.752  213.671  213.982  213.869  214.095  214.255  215.214  214.290  214.543  214.407  214.741  214.149  214.050  214.117  213.995  214.316  213.794  213.742  213.748  214.952  213.686  213.390  213.604  213.647  213.204  213.088  213.068  213.635  213.214  213.339  212.991  213.404  214.040  213.085  212.919  213.107  213.178  213.018  213.024  213.168  214.181  213.079  213.111  213.033  213.626  213.286  213.522  212.884  213.078  212.856  212.649  212.548  212.543  213.694  212.958  212.327  212.538  212.979  212.615  225.715  216.226  356.027  215.215  212.641  212.221  211.643  212.054  211.840  211.711  211.672  211.864  211.660  212.009  211.917  213.091  211.950  212.024  212.282  212.418  212.763  212.435  212.363  212.380  212.809  212.838  212.897  213.316  215.053  214.276  215.684  218.233  221.369  223.963  226.225  228.584  229.502  227.523  221.886  218.764  217.326  217.139  215.594  214.813  214.460  214.550  214.196  213.934  214.118  215.057  213.670  213.617  213.780  213.433  213.795  213.677  213.418  213.345  213.862  213.384  213.076  213.118  214.200  212.650  212.577  212.678  212.896  211.616  211.760  214.224  210.901  212.337  210.948  211.109  210.814  211.258  211.013  211.445  210.970  211.504  210.796  211.176  211.159  212.378  211.572  211.201  211.430  210.689  211.294  211.324  211.526  211.486  211.588  211.593  211.418  211.571  212.061  211.778  211.618  211.577  211.845  211.699  211.444  211.441  211.178  212.292  211.139  211.014  210.987  210.816  210.702  210.731  211.173  211.826  210.594  210.622  210.536  210.921  210.893  210.536  210.519  210.670  211.087  210.627  210.566  210.695  211.922  210.762  210.784  210.705  210.540  210.509  210.352  210.591  211.525  211.740  210.243  210.968  210.685  210.797  210.505  210.685  210.863  211.597  211.668  211.245  211.327  212.396  211.178  211.175  211.114 
DATE 2017:063:17:15:55 obsn  64 az  75 el 43 freq_MHz  1420.4000 Tsys 192.762 Tant 21.669 vlsr   22.89 glat -31.232 glon 133.843 source Trigl 
Fstart 1419.397 fstop 1421.403 spacing 0.009375 bw    2.400 fbw    2.000 MHz nfreq 256 nsam 5242880 npoint 214 integ   735 sigma    0.073 bsw 0
Spectrum    673 integration periods
 215.246  214.501  214.764  213.790  213.769  213.678  213.993  213.899  214.095  214.279  215.245  214.304  214.553  214.416  214.763  214.145  214.075  214.114  214.011  214.332  213.810  213.762  213.772  214.983  213.687  213.407  213.631  213.679  213.223  213.090  213.087  213.648  213.219  213.363  212.998  213.428  214.082  213.092  212.940  213.128  213.176  213.052  213.050  213.185  214.196  213.080  213.120  213.044  213.646  213.302  213.535  212.913  213.104  212.891  212.672  212.550  212.556  213.746  212.962  212.320  212.551  213.003  212.632  225.662  216.207  355.305  215.233  212.644  212.227  211.659  212.114  211.861  211.742  211.686  211.859  211.673  212.006  211.927  213.114  211.936  212.024  212.280  212.423  212.770  212.437  212.377  212.399  212.806  212.843  212.906  213.323  215.078  214.286  215.688  218.230  221.380  223.976  226.197  228.574  229.497  227.547  221.899  218.787  217.332  217.171  215.596  214.838  214.459  214.561  214.194  213.942  214.115  215.104  213.684  213.609  213.795  213.453  213.802  213.668  213.431  213.346  213.882  213.394  213.069  213.145  214.233  212.666  212.577  212.697  212.911  211.622  211.764  214.262  210.907  212.352  210.962  211.118  210.820  211.263  211.006  211.465  210.966  211.517  210.799  211.175  211.165  212.418  211.568  211.203  211.448  210.745  211.293  211.321  211.529  211.501  211.577  211.602  211.433  211.576  212.088  211.780  211.625  211.559  211.842  211.709  211.458  211.442  211.181  212.308  211.147  211.029  210.996  210.814  210.707  210.735  211.170  211.853  210.578  210.618  210.533  210.914  210.882  210.529  210.511  210.656  211.098  210.628  210.554  210.680  211.933  210.766  210.788  210.691  210.541  210.498  210.364  210.577  211.540  211.744  210.230  210.970  210.682  210.787  210.499  210.679  210.860  211.581  211.665  211.238  211.319  212.403  211.181  211.158  211.084 
DATE 2017:063:17:16:08 obsn  65 az  75 el 43 freq_MHz  1420.4000 Tsys 192.762 Tant 21.245 vlsr   22.89 glat -31.232 glon 133.843 source Trigl 
Fstart 1419.397 fstop 1421.403 spacing 0.009375 bw    2.400 fbw    2.000 MHz nfreq 256 nsam 5242880 npoint 214 integ   746 sigma    0.073 bsw 0
Spectrum    683 integration periods
 215.252  214.509  214.811  213.826  213.783  213.697  213.996  213.903  214.108  214.292  215.263  214.316  214.580  214.405  214.777  214.146  214.099  214.131  214.014  214.346  213.836  213.764  213.781  215.017  213.718  213.420  213.642  213.689  213.240  213.100  213.093  213.685  213.225  213.375  213.002  213.452  214.131  213.099  212.934  213.144  213.198  213.072  213.070  213.195  214.224  213.090  213.132  213.049  213.681  213.301  213.552  212.924  213.112  212.913  212.681  212.549  212.582  213.782  212.974  212.340  212.568  213.007  212.639  225.613  216.194  354.574  215.261  212.653  212.246  211.677  212.083  211.866  211.761  211.708  211.867  211.691  212.005  211.927  213.127  211.952  212.038  212.262  212.423  212.788  212.444  212.394  212.420  212.827  212.852  212.914  213.332  215.109  214.295  215.697  218.226  221.387  223.985  226.192  228.600  229.506  227.562  221.921  218.788  217.361  217.196  215.614  214.853  214.456  214.570  214.208  213.948  214.118  215.132  213.697  213.611  213.801  213.456  213.819  213.675  213.440  213.345  213.904  213.419  213.068  213.150  214.258  212.683  212.576  212.699  212.917  211.644  211.763  214.287  210.910  212.385  210.971  211.125  210.819  211.270  211.020  211.454  210.986  211.545  210.808  211.194  211.179  212.452  211.574  211.197  211.447  210.803  211.306  211.333  211.534  211.492  211.578  211.602  211.448  211.602  212.096  211.774  211.630  211.559  211.863  211.716  211.453  211.446  211.178  212.322  211.152  211.032  210.993  210.811  210.704  210.752  211.163  211.859  210.585  210.597  210.523  210.920  210.892  210.525  210.507  210.646  211.106  210.622  210.572  210.675  211.940  210.749  210.772  210.688  210.528  210.489  210.379  210.578  211.554  211.759  210.228  210.974  210.676  210.788  210.493  210.677  210.859  211.599  211.646  211.227  211.312  212.412  211.173  211.152  211.082 
DATE 2017:063:17:16:21 obsn  66 az  75 el 43 freq_MHz  1420.4000 Tsys 192.762 Tant 21.935 vlsr   22.89 glat -31.232 glon 133.843 source Trigl 
Fstart 1419.397 fstop 1421.403 spacing 0.009375 bw    2.400 fbw    2.000 MHz nfreq 256 nsam 5242880 npoint 214 integ   757 sigma    0.072 bsw 0
Spectrum    693 integration periods
 215.267  214.528  214.838  213.839  213.803  213.718  214.007  213.908  214.118  214.295  215.305  214.330  214.600  214.416  214.792  214.160  214.104  214.135  214.022  214.370  213.840  213.763  213.781  215.056  213.726  213.417  213.661  213.697  213.255  213.109  213.112  213.711  213.242  213.360  213.021  213.461  214.189  213.103  212.958  213.156  213.200  213.105  213.074  213.216  214.256  213.106  213.136  213.049  213.708  213.322  213.552  212.915  213.103  212.918  212.693  212.561  212.591  213.811  212.974  212.345  212.562  213.026  212.652  225.562  216.183  353.936  215.278  212.646  212.251  211.701  212.094  211.869  211.784  211.723  211.882  211.703  212.005  211.933  213.167  211.961  212.056  212.274  212.447  212.811  212.461  212.408  212.435  212.855  212.872  212.912  213.335  215.153  214.324  215.717  218.229  221.399  223.986  226.189  228.604  229.509  227.593  221.919  218.804  217.385  217.229  215.611  214.851  214.461  214.601  214.210  213.966  214.120  215.173  213.706  213.625  213.808  213.449  213.813  213.708  213.440  213.354  213.937  213.427  213.075  213.167  214.288  212.694  212.586  212.699  212.912  211.646  211.775  214.323  210.942  212.397  211.000  211.147  210.809  211.297  211.019  211.466  210.986  211.582  210.816  211.193  211.180  212.474  211.560  211.192  211.469  210.821  211.307  211.345  211.540  211.494  211.571  211.604  211.446  211.621  212.106  211.765  211.632  211.563  211.850  211.709  211.451  211.456  211.181  212.347  211.149  211.044  211.000  210.805  210.708  210.744  211.136  211.858  210.574  210.589  210.534  210.913  210.906  210.526  210.483  210.654  211.121  210.611  210.569  210.661  211.955  210.757  210.777  210.684  210.520  210.474  210.368  210.570  211.575  211.783  210.217  210.963  210.671  210.782  210.484  210.675  210.849  211.611  211.660  211.214  211.312  212.426  211.165  211.144  211.080 
DATE 2017:063:17:16:34 obsn  67 az  75 el 43 freq_MHz  1420.4000 Tsys 192.762 Tant 22.389 vlsr   22.89 glat -31.232 glon 133.843 source Trigl 
Fstart 1419.397 fstop 1421.403 spacing 0.009375 bw    2.400 fbw    2.000 MHz nfreq 256 nsam 5242880 npoint 214 integ   768 sigma    0.072 bsw 0
Spectrum    703 integration periods
 215.285  214.533  214.873  213.851  213.814  213.724  214.008  213.925  214.129  214.295  215.354  214.350  214.600  214.418  214.821  214.165  214.127  214.149  214.040  214.374  213.859  213.780  213.805  215.081  213.742  213.433  213.657  213.705  213.256  213.114  213.125  213.730  213.247  213.363  213.035  213.479  214.223  213.109  212.973  213.186  213.220  213.130  213.090  213.223  214.289  213.124  213.162  213.053  213.727  213.350  213.578  212.931  213.098  212.918  212.709  212.555  212.594  213.844  212.986  212.360  212.569  213.045  212.673  225.515  216.184  353.322  215.288  212.650  212.250  211.724  212.203  211.892  211.806  211.719  211.889  211.716  212.019  211.945  213.193  211.971  212.055  212.276  212.448  212.830  212.480  212.414  212.444  212.871  212.875  212.907  213.345  215.185  214.334  215.720  218.245  221.414  223.997  226.201  228.586  229.505  227.623  221.946  218.826  217.404  217.258  215.632  214.866  214.485  214.615  214.224  213.978  214.102  215.199  213.716  213.633  213.827  213.458  213.824  213.720  213.458  213.365  213.962  213.433  213.102  213.175  214.318  212.708  212.592  212.705  212.909  211.663  211.793  214.351  210.944  212.420  211.005  211.159  210.822  211.329  211.027  211.472  210.997  211.600  210.820  211.186  211.190  212.519  211.573  211.192  211.433  210.812  211.317  211.345  211.535  211.508  211.597  211.613  211.448  211.645  212.108  211.760  211.628  211.567  211.873  211.716  211.452  211.467  211.207  212.389  211.138  211.047  210.999  210.801  210.716  210.746  211.144  211.893  210.571  210.583  210.526  210.908  210.909  210.527  210.476  210.654  211.127  210.609  210.576  210.659  211.989  210.756  210.770  210.673  210.509  210.466  210.367  210.566  211.581  211.791  210.222  210.951  210.661  210.782  210.489  210.672  210.848  211.620  211.670  211.190  211.296  212.437  211.153  211.140  211.055 
DATE 2017:063:17:16:47 obsn  68 az  75 el 43 freq_MHz  1420.4000 Tsys 192.762 Tant 21.614 vlsr   22.89 glat -31.232 glon 133.843 source Trigl 
Fstart 1419.397 fstop 1421.403 spacing 0.009375 bw    2.400 fbw    2.000 MHz nfreq 256 nsam 5242880 npoint 214 integ   779 sigma    0.071 bsw 0
Spectrum    713 integration periods
 215.300  214.543  214.900  213.871  213.813  213.726  214.024  213.952  214.135  214.283  215.395  214.354  214.597  214.420  214.842  214.176  214.157  214.167  214.063  214.389  213.874  213.777  213.805  215.123  213.758  213.462  213.664  213.724  213.271  213.128  213.143  213.770  213.268  213.378  213.047  213.490  214.245  213.129  212.977  213.201  213.229  213.143  213.108  213.243  214.314  213.131  213.172  213.057  213.752  213.352  213.584  212.943  213.112  212.934  212.710  212.564  212.619  213.885  213.005  212.377  212.580  213.062  212.673  225.489  216.175  352.697  215.298  212.673  212.263  211.743  212.185  211.904  211.815  211.742  211.899  211.724  212.032  211.960  213.230  211.980  212.072  212.292  212.468  212.841  212.494  212.423  212.461  212.892  212.898  212.925  213.344  215.222  214.339  215.733  218.254  221.417  223.993  226.211  228.588  229.504  227.646  221.965  218.833  217.396  217.301  215.632  214.883  214.505  214.626  214.225  213.965  214.105  215.239  213.731  213.649  213.817  213.452  213.826  213.732  213.472  213.377  213.989  213.436  213.094  213.197  214.371  212.720  212.604  212.705  212.907  211.679  211.784  214.385  210.933  212.436  211.019  211.164  210.834  211.331  211.022  211.458  210.997  211.623  210.843  211.184  211.187  212.546  211.582  211.192  211.427  210.864  211.321  211.352  211.543  211.507  211.571  211.614  211.456  211.649  212.124  211.755  211.643  211.557  211.891  211.701  211.448  211.460  211.219  212.420  211.147  211.043  210.985  210.794  210.735  210.733  211.147  211.914  210.566  210.580  210.522  210.913  210.913  210.537  210.469  210.665  211.133  210.597  210.567  210.656  211.999  210.735  210.766  210.674  210.503  210.456  210.354  210.563  211.594  211.820  210.227  210.924  210.666  210.791  210.493  210.657  210.860  211.623  211.659  211.184  211.268  212.456  211.144  211.118  211.061 
DATE 2017:063:17:17:00 obsn  69 az  75 el 43 freq_MHz  1420.4000 Tsys 192.762 Tant 21.574 vlsr   22.89 glat -31.232 glon 133.843 source Trigl 
Fstart 1419.397 fstop 1421.403 spacing 0.009375 bw    2.400 fbw    2.000 MHz nfreq 256 nsam 5242880 npoint 214 integ   790 sigma    0.071 bsw 0
Spectrum    723 integration periods
 215.307  214.553  214.920  213.875  213.815  213.754  214.036  213.968  214.148  214.283  215.434  214.348  214.594  214.422  214.849  214.169  214.173  214.174  214.061  214.402  213.892  213.784  213.806  215.153  213.752  213.476  213.659  213.724  213.273  213.128  213.162  213.794  213.284  213.380  213.040  213.501  214.267  213.133  212.980  213.209  213.238  213.155  213.118  213.244  214.347  213.155  213.184  213.037  213.772  213.360  213.591  212.954  213.116  212.951  212.711  212.563  212.637  213.949  213.003  212.374  212.592  213.075  212.688  225.444  216.144  352.018  215.300  212.681  212.255  211.740  212.219  211.909  211.814  211.739  211.898  211.731  212.029  211.976  213.260  211.995  212.072  212.292  212.480  212.848  212.507  212.438  212.469  212.920  212.900  212.927  213.335  215.240  214.346  215.751  218.264  221.431  223.990  226.218  228.599  229.503  227.652  221.971  218.838  217.410  217.327  215.642  214.890  214.514  214.627  214.215  213.979  214.124  215.266  213.724  213.656  213.831  213.458  213.829  213.726  213.478  213.375  214.011  213.432  213.095  213.202  214.387  212.729  212.612  212.703  212.899  211.692  211.791  214.415  210.952  212.448  211.028  211.162  210.832  211.339  211.014  211.454  210.998  211.640  210.847  211.177  211.182  212.564  211.576  211.183  211.423  210.866  211.308  211.361  211.550  211.508  211.575  211.598  211.467  211.643  212.123  211.755  211.638  211.557  211.894  211.678  211.430  211.463  211.228  212.427  211.118  211.021  210.979  210.787  210.723  210.742  211.154  211.928  210.565  210.578  210.527  210.903  210.916  210.548  210.456  210.659  211.139  210.598  210.566  210.637  212.004  210.732  210.746  210.662  210.505  210.436  210.351  210.552  211.593  211.832  210.218  210.919  210.659  210.794  210.475  210.657  210.858  211.621  211.657  211.172  211.255  212.461  211.131  211.086  211.061 
DATE 2017:063:17:17:13 obsn  70 az  75 el 43 freq_MHz  1420.4000 Tsys 192.762 Tant 21.503 vlsr   22.89 glat -31.232 glon 133.843 source Trigl 
Fstart 1419.397 fstop 1421.403 spacing 0.009375 bw    2.400 fbw    2.000 MHz nfreq 256 nsam 5242880 npoint 214 integ   801 sigma    0.070 bsw 0
Spectrum    733 integration periods
 215.313  214.558  214.964  213.888  213.820  213.771  214.039  213.980  214.167  214.292  215.477  214.362  214.608  214.433  214.865  214.184  214.182  214.180  214.082  214.413  213.901  213.788  213.809  215.185  213.757  213.486  213.667  213.738  213.286  213.137  213.164  213.822  213.303  213.389  213.055  213.512  214.287  213.136  212.992  213.212  213.238  213.163  213.118  213.259  214.363  213.168  213.183  213.058  213.784  213.364  213.601  212.966  213.118  212.977  212.738  212.573  212.649  213.978  213.000  212.398  212.612  213.081  212.695  225.401  216.132  351.436  215.319  212.684  212.257  211.723  212.162  211.910  211.819  211.766  211.919  211.741  212.027  211.978  213.280  212.008  212.078  212.289  212.501  212.863  212.523  212.457  212.490  212.930  212.914  212.935  213.325  215.268  214.360  215.757  218.274  221.436  224.004  226.207  228.611  229.502  227.649  221.969  218.853  217.429  217.347  215.670  214.897  214.504  214.621  214.216  213.975  214.115  215.296  213.747  213.672  213.836  213.463  213.831  213.722  213.487  213.381  214.027  213.452  213.092  213.213  214.404  212.729  212.613  212.693  212.896  211.694  211.782  214.435  210.957  212.469  211.019  211.165  210.854  211.353  211.022  211.449  211.001  211.644  210.852  211.178  211.179  212.581  211.560  211.171  211.394  210.844  211.298  211.374  211.558  211.496  211.554  211.601  211.488  211.638  212.131  211.755  211.629  211.557  211.901  211.675  211.422  211.453  211.215  212.434  211.117  211.022  210.964  210.781  210.725  210.745  211.149  211.958  210.546  210.571  210.528  210.900  210.905  210.544  210.475  210.661  211.131  210.601  210.568  210.629  212.015  210.721  210.742  210.647  210.501  210.423  210.347  210.556  211.597  211.856  210.206  210.919  210.656  210.792  210.456  210.632  210.849  211.619  211.639  211.156  211.255  212.473  211.138  211.093  211.054 
DATE 2017:063:17:17:35 obsn  71 az  76 el 43 freq_MHz  1420.4000 Tsys 192.762 Tant 21.726 vlsr   22.89 glat -31.232 glon 133.843 source Trigl 
Fstart 1419.397 fstop 1421.403 spacing 0.009375 bw    2.400 fbw    2.000 MHz nfreq 256 nsam 5242880 npoint 214 integ   812 sigma    0.070 bsw 0
Spectrum    743 integration periods
 215.325  214.585  214.976  213.916  213.826  213.784  214.054  213.982  214.175  214.313  215.505  214.386  214.622  214.463  214.878  214.231  214.210  214.202  214.108  214.446  213.927  213.816  213.845  215.219  213.779  213.505  213.694  213.755  213.296  213.169  213.182  213.846  213.322  213.410  213.079  213.526  214.326  213.149  213.013  213.235  213.253  213.191  213.138  213.281  214.406  213.188  213.200  213.078  213.824  213.378  213.614  212.996  213.134  212.996  212.743  212.587  212.681  214.025  213.014  212.408  212.620  213.103  212.716  225.350  216.117  350.808  215.336  212.712  212.279  211.728  212.214  211.924  211.835  211.789  211.922  211.746  212.041  212.009  213.309  212.033  212.102  212.299  212.520  212.894  212.523  212.481  212.518  212.956  212.939  212.958  213.350  215.297  214.378  215.781  218.291  221.439  224.030  226.200  228.627  229.523  227.673  221.978  218.867  217.447  217.375  215.691  214.924  214.525  214.631  214.220  213.995  214.118  215.319  213.735  213.687  213.839  213.475  213.845  213.730  213.509  213.392  214.045  213.461  213.112  213.240  214.434  212.752  212.635  212.696  212.903  211.704  211.799  214.464  210.977  212.489  211.029  211.161  210.870  211.361  211.033  211.453  210.999  211.659  210.854  211.194  211.184  212.600  211.562  211.175  211.411  210.875  211.316  211.373  211.554  211.489  211.552  211.624  211.512  211.667  212.124  211.754  211.632  211.553  211.931  211.667  211.437  211.463  211.227  212.436  211.116  211.023  210.975  210.803  210.732  210.752  211.151  211.983  210.557  210.577  210.544  210.910  210.916  210.560  210.487  210.653  211.136  210.601  210.570  210.630  212.025  210.722  210.726  210.641  210.507  210.431  210.354  210.552  211.602  211.876  210.212  210.924  210.659  210.783  210.461  210.627  210.855  211.631  211.650  211.152  211.255  212.470  211.143  211.108  211.051 
DATE 2017:063:17:17:48 obsn  72 az  76 el 43 freq_MHz  1420.4000 Tsys 192.762 Tant 21.563 vlsr   22.89 glat -31.232 glon 133.843 source Trigl 
Fstart 1419.397 fstop 1421.403 spacing 0.009375 bw    2.400 fbw    2.000 MHz nfreq 256 nsam 5242880 npoint 214 integ   822 sigma    0.069 bsw 0
Spectrum    753 integration periods
 215.336  214.583  214.983  213.929  213.833  213.784  214.067  214.002  214.188  214.320  215.545  214.407  214.638  214.471  214.900  214.240  214.201  214.219  214.122  214.455  213.938  213.822  213.844  215.244  213.778  213.511  213.699  213.759  213.316  213.175  213.183  213.863  213.327  213.423  213.089  213.533  214.354  213.164  213.024  213.228  213.253  213.186  213.150  213.289  214.430  213.190  213.211  213.081  213.851  213.387  213.620  212.997  213.117  212.994  212.745  212.580  212.681  214.062  213.018  212.419  212.627  213.124  212.735  225.276  216.083  350.044  215.353  212.708  212.276  211.734  212.173  211.924  211.834  211.796  211.920  211.757  212.027  212.013  213.335  212.038  212.103  212.317  212.540  212.906  212.534  212.483  212.534  212.964  212.954  212.958  213.355  215.317  214.385  215.767  218.286  221.434  224.025  226.201  228.632  229.540  227.701  221.982  218.860  217.443  217.381  215.688  214.930  214.519  214.634  214.210  213.985  214.111  215.347  213.743  213.658  213.839  213.474  213.838  213.735  213.527  213.394  214.068  213.467  213.095  213.234  214.438  212.745  212.633  212.708  212.891  211.703  211.784  214.455  210.968  212.504  211.026  211.146  210.873  211.370  211.039  211.451  210.997  211.652  210.865  211.178  211.169  212.598  211.572  211.166  211.409  210.927  211.292  211.350  211.545  211.490  211.528  211.606  211.510  211.663  212.123  211.736  211.613  211.538  211.940  211.664  211.413  211.456  211.226  212.450  211.105  211.012  210.955  210.779  210.721  210.740  211.145  211.990  210.553  210.566  210.534  210.913  210.914  210.543  210.466  210.635  211.125  210.591  210.562  210.600  212.020  210.725  210.717  210.649  210.498  210.405  210.344  210.541  211.598  211.887  210.209  210.910  210.649  210.779  210.461  210.610  210.836  211.621  211.640  211.124  211.235  212.482  211.123  211.108  211.017 
DATE 2017:063:17:18:01 obsn  73 az  76 el 43 freq_MHz  1420.4000 Tsys 192.762 Tant 21.480 vlsr   22.89 glat -31.232 glon 133.843 source Trigl 
Fstart 1419.397 fstop 1421.403 spacing 0.009375 bw    2.400 fbw    2.000 MHz nfreq 256 nsam 5242880 npoint 214 integ   833 sigma    0.069 bsw 0
Spectrum    763 integration periods
 215.334  214.596  215.005  213.927  213.842  213.799  214.079  214.004  214.214  214.312  215.568  214.417  214.630  214.484  214.912  214.251  214.207  214.238  214.156  214.466  213.952  213.825  213.860  215.266  213.780  213.506  213.713  213.766  213.322  213.183  213.190  213.874  213.324  213.407  213.087  213.538  214.377  213.177  213.027  213.236  213.253  213.193  213.154  213.296  214.452  213.200  213.209  213.083  213.836  213.397  213.625  213.006  213.116  213.003  212.751  212.607  212.696  214.104  213.010  212.426  212.638  213.135  212.740  225.202  216.050  349.327  215.366  212.717  212.266  211.739  212.147  211.931  211.829  211.795  211.926  211.758  212.029  212.011  213.364  212.038  212.096  212.311  212.546  212.920  212.531  212.470  212.538  212.966  212.941  212.952  213.348  215.349  214.385  215.764  218.286  221.429  224.014  226.208  228.645  229.551  227.723  221.969  218.853  217.434  217.408  215.687  214.931  214.514  214.634  214.199  213.986  214.101  215.358  213.738  213.662  213.847  213.472  213.838  213.728  213.502  213.383  214.066  213.471  213.084  213.233  214.451  212.750  212.632  212.691  212.881  211.695  211.779  214.461  210.967  212.506  211.015  211.145  210.872  211.366  211.034  211.449  210.998  211.651  210.878  211.163  211.168  212.595  211.577  211.156  211.410  210.964  211.283  211.337  211.527  211.471  211.506  211.618  211.513  211.649  212.122  211.723  211.601  211.527  211.949  211.669  211.394  211.436  211.228  212.456  211.100  211.006  210.950  210.768  210.716  210.716  211.127  211.993  210.553  210.551  210.525  210.926  210.911  210.516  210.445  210.615  211.128  210.564  210.562  210.588  212.028  210.713  210.700  210.621  210.493  210.391  210.336  210.534  211.593  211.892  210.207  210.889  210.628  210.766  210.455  210.592  210.812  211.615  211.642  211.112  211.210  212.482  211.099  211.095  211.010 
DATE 2017:063:17:18:14 obsn  74 az  76 el 43 freq_MHz  1420.4000 Tsys 192.762 Tant 22.043 vlsr   22.89 glat -31.232 glon 133.843 source Trigl 
Fstart 1419.397 fstop 1421.403 spacing 0.009375 bw    2.400 fbw    2.000 MHz nfreq 256 nsam 5242880 npoint 214 integ   844 sigma    0.069 bsw 0
Spectrum    773 integration periods
 215.328  214.594  215.037  213.942  213.844  213.819  214.082  214.015  214.232  214.327  215.601  214.415  214.616  214.501  214.916  214.266  214.210  214.252  214.163  214.481  213.965  213.831  213.889  215.291  213.814  213.518  213.723  213.776  213.328  213.194  213.206  213.899  213.338  213.413  213.100  213.540  214.420  213.200  213.039  213.237  213.256  213.202  213.159  213.306  214.466  213.203  213.217  213.081  213.845  213.380  213.642  212.999  213.114  213.013  212.766  212.620  212.702  214.150  213.008  212.424  212.653  213.141  212.750  225.129  216.030  348.637  215.370  212.720  212.252  211.732  212.154  211.932  211.846  211.787  211.921  211.758  212.035  212.031  213.400  212.042  212.104  212.310  212.558  212.943  212.536  212.486  212.540  212.978  212.941  212.970  213.366  215.373  214.390  215.751  218.295  221.419  224.004  226.204  228.661  229.572  227.749  221.964  218.866  217.426  217.422  215.697  214.924  214.519  214.634  214.209  213.985  214.102  215.383  213.764  213.677  213.846  213.481  213.854  213.732  213.503  213.373  214.067  213.473  213.090  213.247  214.458  212.751  212.639  212.712  212.869  211.709  211.779  214.467  210.974  212.518  211.011  211.129  210.873  211.368  211.038  211.441  210.975  211.668  210.885  211.146  211.165  212.630  211.573  211.151  211.416  211.004  211.279  211.320  211.525  211.467  211.478  211.613  211.528  211.628  212.126  211.715  211.593  211.515  211.953  211.655  211.390  211.423  211.215  212.473  211.092  211.009  210.951  210.762  210.708  210.704  211.126  212.000  210.541  210.526  210.517  210.919  210.909  210.515  210.439  210.620  211.131  210.561  210.557  210.582  212.034  210.703  210.685  210.613  210.490  210.378  210.316  210.528  211.597  211.895  210.197  210.872  210.620  210.766  210.449  210.596  210.793  211.616  211.637  211.118  211.219  212.485  211.097  211.082  210.986 
DATE 2017:063:17:18:27 obsn  75 az  76 el 43 freq_MHz  1420.4000 Tsys 192.762 Tant 21.539 vlsr   22.89 glat -31.232 glon 133.843 source Trigl 
Fstart 1419.397 fstop 1421.403 spacing 0.009375 bw    2.400 fbw    2.000 MHz nfreq 256 nsam 5242880 npoint 214 integ   855 sigma    0.068 bsw 0
Spectrum    783 integration periods
 215.328  214.614  215.066  213.944  213.856  213.840  214.095  214.023  214.238  214.340  215.636  214.435  214.617  214.515  214.947  214.284  214.217  214.263  214.172  214.507  213.979  213.839  213.902  215.324  213.817  213.533  213.740  213.778  213.331  213.211  213.222  213.924  213.343  213.442  213.108  213.558  214.440  213.207  213.042  213.248  213.278  213.206  213.175  213.312  214.498  213.206  213.225  213.096  213.872  213.391  213.650  213.000  213.133  213.030  212.769  212.627  212.717  214.172  213.016  212.435  212.654  213.150  212.763  225.056  216.016  347.976  215.390  212.731  212.257  211.748  212.123  211.938  211.858  211.807  211.928  211.769  212.046  212.044  213.433  212.050  212.106  212.323  212.562  212.975  212.545  212.484  212.547  213.011  212.946  212.977  213.379  215.410  214.400  215.764  218.294  221.437  224.003  226.222  228.695  229.585  227.772  221.965  218.883  217.422  217.439  215.702  214.919  214.533  214.635  214.224  213.992  214.105  215.415  213.757  213.672  213.861  213.493  213.855  213.727  213.510  213.387  214.085  213.474  213.088  213.245  214.483  212.749  212.652  212.709  212.870  211.704  211.771  214.472  210.971  212.534  211.004  211.129  210.874  211.361  211.045  211.451  210.971  211.675  210.890  211.147  211.170  212.646  211.573  211.144  211.404  210.980  211.276  211.310  211.511  211.472  211.483  211.600  211.526  211.629  212.130  211.727  211.591  211.513  211.962  211.655  211.377  211.419  211.222  212.483  211.089  211.008  210.952  210.767  210.690  210.697  211.122  212.010  210.541  210.521  210.516  210.915  210.920  210.514  210.429  210.609  211.132  210.569  210.548  210.572  212.045  210.695  210.676  210.610  210.471  210.366  210.318  210.521  211.608  211.900  210.194  210.860  210.604  210.764  210.434  210.582  210.791  211.625  211.631  211.099  211.207  212.501  211.109  211.069  210.978 
DATE 2017:063:17:18:40 obsn  76 az  76 el 43 freq_MHz  1420.4000 Tsys 192.762 Tant 21.085 vlsr   22.89 glat -31.232 glon 133.843 source Trigl 
Fstart 1419.397 fstop 1421.403 spacing 0.009375 bw    2.400 fbw    2.000 MHz nfreq 256 nsam 5242880 npoint 214 integ   866 sigma    0.068 bsw 0
Spectrum    793 integration periods
 215.352  214.615  215.093  213.948  213.860  213.863  214.106  214.031  214.250  214.352  215.668  214.441  214.610  214.540  214.959  214.292  214.229  214.266  214.182  214.508  213.996  213.850  213.903  215.351  213.848  213.544  213.749  213.793  213.341  213.230  213.221  213.942  213.343  213.443  213.128  213.569  214.452  213.215  213.056  213.258  213.284  213.202  213.189  213.340  214.528  213.217  213.235  213.103  213.888  213.397  213.653  213.005  213.143  213.037  212.768  212.639  212.708  214.202  213.019  212.445  212.661  213.166  212.771  224.987  216.011  347.300  215.408  212.735  212.250  211.763  212.158  211.929  211.859  211.801  211.928  211.777  212.034  212.041  213.461  212.069  212.104  212.317  212.579  212.995  212.541  212.487  212.543  213.016  212.962  212.987  213.384  215.426  214.406  215.760  218.306  221.449  224.008  226.224  228.708  229.603  227.800  221.977  218.877  217.435  217.448  215.712  214.927  214.530  214.637  214.229  214.010  214.099  215.420  213.752  213.672  213.861  213.492  213.865  213.729  213.496  213.381  214.109  213.477  213.089  213.245  214.480  212.740  212.650  212.713  212.877  211.685  211.774  214.466  210.976  212.541  210.988  211.126  210.872  211.361  211.038  211.422  210.979  211.681  210.879  211.143  211.156  212.663  211.583  211.129  211.403  211.019  211.271  211.311  211.506  211.452  211.472  211.601  211.521  211.624  212.123  211.729  211.592  211.506  211.956  211.645  211.381  211.425  211.226  212.485  211.067  210.999  210.951  210.768  210.673  210.684  211.103  212.009  210.539  210.511  210.501  210.921  210.909  210.513  210.431  210.595  211.121  210.556  210.548  210.565  212.050  210.696  210.665  210.619  210.464  210.373  210.322  210.519  211.605  211.919  210.174  210.859  210.598  210.762  210.439  210.575  210.793  211.639  211.608  211.087  211.187  212.506  211.098  211.059  210.967 
DATE 2017:063:17:18:53 obsn  77 az  76 el 43 freq_MHz  1420.4000 Tsys 192.762 Tant 20.777 vlsr   22.89 glat -31.232 glon 133.843 source Trigl 
Fstart 1419.397 fstop 1421.403 spacing 0.009375 bw    2.400 fbw    2.000 MHz nfreq 256 nsam 5242880 npoint 214 integ   877 sigma    0.067 bsw 0
Spectrum    803 integration periods
 215.364  214.619  215.115  213.951  213.858  213.874  214.125  214.032  214.255  214.367  215.695  214.446  214.620  214.545  214.984  214.293  214.229  214.274  214.190  214.517  213.993  213.853  213.907  215.386  213.852  213.540  213.757  213.802  213.345  213.248  213.225  213.960  213.349  213.451  213.141  213.584  214.484  213.222  213.065  213.287  213.303  213.204  213.191  213.352  214.548  213.209  213.233  213.106  213.909  213.429  213.668  213.018  213.158  213.047  212.778  212.641  212.718  214.228  213.022  212.453  212.670  213.176  212.769  224.910  216.003  346.635  215.423  212.740  212.255  211.754  212.169  211.925  211.860  211.822  211.925  211.778  212.020  212.043  213.483  212.074  212.098  212.324  212.587  212.992  212.531  212.493  212.539  213.029  212.965  212.993  213.397  215.446  214.384  215.744  218.295  221.452  224.019  226.230  228.716  229.637  227.831  221.985  218.886  217.436  217.458  215.726  214.926  214.528  214.646  214.228  214.029  214.098  215.435  213.761  213.665  213.860  213.493  213.863  213.722  213.492  213.375  214.111  213.475  213.096  213.253  214.502  212.734  212.639  212.702  212.869  211.686  211.772  214.456  210.977  212.560  210.981  211.114  210.875  211.361  211.027  211.418  210.964  211.694  210.880  211.136  211.166  212.695  211.579  211.130  211.391  211.008  211.264  211.299  211.515  211.440  211.465  211.588  211.496  211.620  212.121  211.734  211.586  211.504  211.964  211.646  211.378  211.412  211.213  212.490  211.066  210.997  210.931  210.763  210.668  210.674  211.089  212.019  210.539  210.517  210.490  210.920  210.907  210.499  210.431  210.582  211.139  210.546  210.520  210.556  212.050  210.681  210.657  210.637  210.456  210.363  210.305  210.513  211.606  211.929  210.170  210.859  210.589  210.747  210.433  210.571  210.784  211.642  211.605  211.079  211.184  212.513  211.087  211.047  210.970 
DATE 2017:063:17:19:06 obsn  78 az  76 el 43 freq_MHz  1420.4000 Tsys 192.762 Tant 21.843 vlsr   22.89 glat -31.232 glon 133.843 source Trigl 
Fstart 1419.397 fstop 1421.403 spacing 0.009375 bw    2.400 fbw    2.000 MHz nfreq 256 nsam 5242880 npoint 214 integ   888 sigma    0.067 bsw 0
Spectrum    813 integration periods
 215.365  214.631  215.135  213.943  213.861  213.872  214.114  214.044  214.262  214.376  215.732  214.434  214.622  214.578  214.998  214.306  214.238  214.271  214.198  214.522  213.998  213.856  213.920  215.423  213.846  213.545  213.756  213.820  213.354  213.249  213.232  213.979  213.357  213.460  213.143  213.589  214.502  213.235  213.072  213.294  213.296  213.202  213.193  213.362  214.583  213.198  213.233  213.120  213.918  213.454  213.676  213.008  213.157  213.055  212.779  212.645  212.721  214.259  213.010  212.455  212.672  213.193  212.777  224.844  215.994  346.002  215.450  212.742  212.258  211.758  212.183  211.925  211.862  211.830  211.934  211.798  212.024  212.040  213.503  212.089  212.102  212.338  212.585  213.004  212.545  212.500  212.543  213.035  212.971  212.993  213.390  215.478  214.389  215.747  218.299  221.464  224.011  226.238  228.732  229.642  227.848  221.993  218.890  217.441  217.479  215.727  214.914  214.521  214.649  214.237  214.029  214.101  215.456  213.757  213.663  213.871  213.493  213.852  213.718  213.484  213.364  214.128  213.479  213.106  213.254  214.520  212.731  212.632  212.696  212.861  211.679  211.765  214.439  210.978  212.578  210.979  211.120  210.881  211.353  211.011  211.413  210.968  211.705  210.874  211.125  211.161  212.713  211.591  211.135  211.368  210.984  211.251  211.291  211.507  211.425  211.459  211.594  211.476  211.604  212.136  211.735  211.582  211.515  211.959  211.650  211.376  211.404  211.212  212.502  211.066  210.986  210.928  210.767  210.658  210.663  211.063  212.028  210.527  210.509  210.488  210.913  210.905  210.493  210.426  210.590  211.134  210.530  210.517  210.555  212.074  210.659  210.647  210.628  210.448  210.347  210.297  210.501  211.609  211.950  210.164  210.856  210.586  210.740  210.425  210.551  210.782  211.649  211.607  211.072  211.177  212.525  211.074  211.044  210.960 
